tempo_ms,ax,ay,az,gx,gy,gz,pitch,roll,yaw,magnitude
37735.0,0.0015,0.0023,0.9203,0,0,0,0.00026567803193941854,-0.00017326828546444627,0.0,0.9203040964811577
37746.0,0.0021,0.0044,0.9275,0,-0.5143926666666667,0,0.0010126215095352634,-0.006116082173643569,0.0,0.9275128139276567
37757.0,0.0024,-0.0001,0.9287,0,0,0,0.0016616358161559886,-0.006637533725849525,0.0,0.9287031064877516
37768.0,0.0015,0.0038,0.9282,0,0,0,0.0026806783838721326,-0.00726359668895672,0.0,0.9282089904757441
37779.0,0.0035,0.0017,0.9167,0,0,0,0.0037808379662992303,-0.008219282584124556,0.0,0.9167082578443373
37790.0,0.0027,0.0015,0.9207,0,-0.5067926666666667,0,0.004927098561197873,-0.01483485868745403,0.0,0.9207051808260882
37801.0,0.0018,0.0046,0.9294,0,0,0,0.0064809431480216655,-0.015942223712937235,0.0,0.9294131266557408
37812.0,0.0044,0.0021,0.9333,0,0,0,0.008093933511422343,-0.017417005288252695,0.0,0.9333127342964951
37823.0,0.0011,0.0018,0.9252,0,0,0,0.009721843038297968,-0.0188204993056664,0.0,0.9252024048823047
37834.0,0.0026,-0.0001,0.9196,0,0,0,0.011132099227290904,-0.020339794445466783,0.0,0.9196036809408714
37845.0,0.0034,0.0031,0.9192,0,-0.5372926666666666,0,0.012733289668509675,-0.027847905502894402,0.0,0.9192115153760858
38031.0,0.0026,-0.0004,0.9257,0,-0.5067926666666667,0,0.01407546354810912,-0.12189925061363216,0.0,0.9257037377044558
38042.0,0.0004,0.0037,0.9299,0,0,0,0.015682595583910646,-0.12152029794421078,0.0,0.9299074470074965
38053.0,0.0038,0.0032,0.9261,0,0,0,0.017461107116526056,-0.12140866505075958,0.0,0.9261133245991011
38064.0,0.0023,0.002,0.9192,0,0,0,0.019243271833017585,-0.12135290083171878,0.0,0.9192050532933335
38075.0,0.0034,0.0006,0.9276,0,0,0,0.02085242939229985,-0.1214788557726465,0.0,0.9276064251610162
38086.0,0.0002,0.0028,0.9271,0,0,0,0.022574443749296534,-0.12137429436972257,0.0,0.9271042498014989
38097.0,-0.0005,0.0039,0.9266,0,0,0,0.024527580774232373,-0.12098060133355165,0.0,0.9266083422892327
38108.0,0.0006,0.0001,0.9225,0,0,0,0.026216688620370444,-0.12046767064789296,0.0,0.9225002005419836
38119.0,0.0031,0.0031,0.9188,0,0,0,0.028038023238462932,-0.12015787761006509,0.0,0.9188104592352004
38130.0,0.0001,0.0009,0.9196,0,0,0,0.029702153915238807,-0.11965943118580599,0.0,0.9196004458459119
38141.0,0.0018,0.0006,0.928,0,-0.5143926666666667,0,0.031185187893147094,-0.12474777789323752,0.0,0.9280019396531454
38152.0,0.0007,0.0021,0.9308,0,0,0,0.032689342744542826,-0.12408183517050592,0.0,0.9308026321406703
38163.0,0.001,0.0021,0.9236,0,0,0,0.03421080727875501,-0.1233708350044682,0.0,0.9236029287523941
38174.0,0.0021,0.0031,0.9224,0,0,0,0.03586807399582394,-0.12275719732374038,0.0,0.922407599708502
38185.0,0.0015,0.0022,0.9198,0,-0.5449926666666665,0,0.03753173636845838,-0.12803233524527938,0.0,0.9198038540906425
38196.0,0.0028,0.0023,0.9235,0,0,0,0.03920916556729316,-0.12748800469413907,0.0,0.9235071087977612
38207.0,0.0027,0.0027,0.927,0,-0.5067926666666667,0,0.040943876997280096,-0.13254973689459135,0.0,0.9270078640443133
38218.0,-0.001,-0.0005,0.9238,0,0,0,0.04233134101907819,-0.1317096036356,0.0,0.9238006765531187
38229.0,0.0017,0.0031,0.9186,0,0,0,0.04385564745178989,-0.1309169776518083,0.0,0.9186068038067212
38240.0,0.0038,0.0016,0.9202,0,-0.5449926666666665,0,0.0453118652567212,-0.1363023994052352,0.0,0.9202092370760033
38251.0,0.0035,0.0048,0.9222,0,0,0,0.047100645851142806,-0.13592625549271023,0.0,0.922219133395095
38603.0,0.0021,0.0061,0.9326,0,0,0,0.04933683338788264,-0.13558082921432457,0.0,0.9326223136940269
38614.0,-0.0004,-0.0004,0.9257,0,0,0,0.05116124830721796,-0.13495570816768013,0.0,0.9257001728421573
38625.0,0.0018,0.0046,0.9185,0,0,0,0.053239696454647635,-0.1343588842204321,0.0,0.9185132824298188
38636.0,0.0028,0.0001,0.9161,0,0,0,0.054981676712102245,-0.13391271076170394,0.0,0.9161042844567424
38647.0,0.0038,0.0007,0.9226,0,0,0,0.056495473343542574,-0.13372283824165027,0.0,0.9226080912283394
38658.0,0.0048,0.0034,0.9303,0,-0.5601926666666666,0,0.058137342556867325,-0.13991999338401337,0.0,0.9303185959659197
38669.0,0.0011,0.0024,0.9305,0,0,0,0.05976485453456426,-0.13980573724716014,0.0,0.9305037452906894
38680.0,0.0013,0.0006,0.9235,0,0,0,0.06115565814969239,-0.1395868791420302,0.0,0.9235011099072918
38691.0,0.0015,0.0011,0.9188,0,0,0,0.0623980043761712,-0.1393022032177894,0.0,0.9188018828887977
38702.0,0.0013,-0.0004,0.9235,0,-0.5830926666666665,0,0.0633196787370607,-0.14521966941575495,0.0,0.9235010016237123
38713.0,-0.0002,0.0005,0.9313,0,0,0,0.06406646701495297,-0.14446492667093447,0.0,0.9313001556963254
38724.0,-0.0013,0.0024,0.9275,0,0,0,0.06489372493834619,-0.14334888753322667,0.0,0.9275040161638115
38735.0,0.0026,0.0016,0.9233,0,0,0,0.06569218172029587,-0.14240022056468135,0.0,0.9233050470998195
38746.0,0.0015,0.0032,0.9186,0,0,0,0.06666298983205236,-0.14146584512280513,0.0,0.918606798363696
38757.0,0.0029,0.0016,0.9182,0,0,0,0.067585775580748,-0.14071964961200625,0.0,0.9182059736246547
38768.0,0.0012,0.0011,0.9252,0,0,0,0.06840063538489845,-0.13992862136763035,0.0,0.9252014321216759
38779.0,0.0018,0.0048,0.9259,0,0,0,0.06957726179196493,-0.13917388517120846,0.0,0.9259141914886065
38790.0,0.0017,0.0024,0.9247,0,0,0,0.0707733236426456,-0.13844053148887783,0.0,0.9247046771807743
38801.0,0.0029,-0.0005,0.9237,0,0,0,0.07162486744865475,-0.13787650477719549,0.0,0.923704687657262
38812.0,0.0049,0.0029,0.9246,0,-0.5296926666666666,0,0.07259213643321606,-0.14342078405522224,0.0,0.9246175317394755
38823.0,0.0021,0.0037,0.928,0,-0.5220926666666665,0,0.07375774904109418,-0.14877239036383702,0.0,0.9280097521039313
38834.0,0.0023,0.0034,0.9277,0,0,0,0.07505874504886563,-0.14841379354109063,0.0,0.9277090815552038
38845.0,0.0018,0.0027,0.9252,0,0,0,0.07639052875944242,-0.14802361514321416,0.0,0.9252056906439778
38856.0,0.0021,0.0037,0.9204,0,0,0,0.07787224317801966,-0.14764486785623235,0.0,0.920409832628922
38867.0,0.0033,0.0021,0.9172,0,-0.5143926666666667,0,0.07928601047499445,-0.15297186414990577,0.0,0.9172083405639092
38878.0,0.0031,0.0037,0.9208,0,-0.5143926666666667,0,0.08083435751329371,-0.15830430567951498,0.0,0.9208126519547828
38889.0,0.001,0.0027,0.9277,0,0,0,0.0823719223040492,-0.15782313543183435,0.0,0.9277044680284773
38900.0,0.0009,0.0057,0.9298,0,0,0,0.08426800913198852,-0.15719311367835173,0.0,0.9298179069043573
38911.0,0.0051,0.0011,0.9222,0,0,0,0.08590899281306236,-0.1569559109753992,0.0,0.9222147580688568
38922.0,0.0042,0.0016,0.912,0,0,0,0.08738713292180963,-0.15695767138314898,0.0,0.9120110744941643
38933.0,0.0023,0.0051,0.9249,0,-0.6212926666666667,0,0.08914850712620631,-0.1636277516425167,0.0,0.924916920593412
38944.0,-0.0001,0.0037,0.9343,0,0,0,0.09097865349952726,-0.16313997638870295,0.0,0.9343073316634094
38955.0,0.0027,0.0056,0.9303,0,0,0,0.09310257450544634,-0.16271636947724477,0.0,0.9303207726370513
38966.0,-0.0004,0.0007,0.9205,0,0,0,0.09487813989474914,-0.1619689621107823,0.0,0.9205003530689165
38977.0,0.004,0.0016,0.9109,0,0,0,0.09645786402464371,-0.16148566470315665,0.0,0.9109101876694541
38988.0,-0.0009,0.0018,0.9208,0,-0.6059926666666664,0,0.09788255438138875,-0.16715790596050273,0.0,0.9208021991720046
38999.0,0.0034,0.0034,0.9326,0,-0.5220926666666665,0,0.09936190987524755,-0.17199480170835246,0.0,0.932612395371196
39010.0,-0.0017,0.0024,0.9272,0,0,0,0.10076443948948915,-0.17064000236695484,0.0,0.9272046645698026
39021.0,0.007,0.0033,0.9133,0,0,0,0.10221318751447782,-0.16997495541348867,0.0,0.9133327871044595
39032.0,0.0031,-0.0007,0.9248,0,0,0,0.1031991094812677,-0.16943273245378987,0.0,0.9248054606240168
39043.0,0.0035,0.0023,0.9288,0,-0.5754926666666664,0,0.1041459530901344,-0.17525203695334232,0.0,0.928809442243133
39054.0,0.0044,0.0013,0.9309,0,0,0,0.10493183173761456,-0.17499401603144896,0.0,0.930911306194097
39065.0,0.0017,0.0017,0.9242,0,0,0,0.10562592098189552,-0.1746272742077916,0.0,0.9242031270234915
39076.0,0.0038,0.0004,0.9244,0,0,0,0.1060764642440721,-0.17442559521280476,0.0,0.9244078969805483
39087.0,-0.0004,0.0037,0.9226,0,0,0,0.10672087310432189,-0.17384988188597825,0.0,0.9226075059308806
39098.0,0.0043,0.0012,0.9177,0,0,0,0.10722645584760579,-0.1735297528314811,0.0,0.9177108586041683
39109.0,0.0013,0.005,0.9274,0,0,0,0.10807702795203838,-0.17306040353443924,0.0,0.9274143895799762
39120.0,0.0009,0.0029,0.9312,0,0,0,0.10896834629036703,-0.17240974609303225,0.0,0.9312049505882151
39131.0,0.0007,0.0045,0.9296,0,0,0,0.11009244281229626,-0.17157641502920656,0.0,0.9296111552686962
39142.0,0.0022,0.005,0.9211,0,0,0,0.11148457147611311,-0.17077191072504924,0.0,0.9211161978816788
39153.0,0.0045,0.002,0.9172,0,0,0,0.11274014142300173,-0.17028078461590263,0.0,0.917213219486069
39164.0,0.0012,0.0038,0.9244,0,-0.5296926666666666,0,0.1140931729050894,-0.17536584397856222,0.0,0.9244085893153524
39175.0,-0.001,0.0055,0.9243,0,0,0,0.11574029496593674,-0.17423699743382998,0.0,0.9243169045300427
39186.0,0.0044,0.0011,0.9333,0,0,0,0.11709432791538893,-0.17343582019116363,0.0,0.9333110199713706
39197.0,0.0007,0.0067,0.9231,0,0,0,0.11888524036549082,-0.1724695472814564,0.0,0.9231245798915767
39208.0,0.0012,0.0029,0.9241,0,0,0,0.12058670172339085,-0.1714212320974157,0.0,0.9241053294944251
39219.0,0.0017,-0.0001,0.9196,0,0,0,0.12183587192722474,-0.17036575484900948,0.0,0.9196015767711581
39230.0,0.0029,0.0026,0.9199,0,0,0,0.12301802553138047,-0.16945481865966963,0.0,0.9199082454245098
39241.0,0.0002,0.0018,0.9314,0,0,0,0.12403506919684948,-0.168335407582198,0.0,0.931401760788544
39252.0,0.0026,0.002,0.9305,0,0,0,0.12492974612975659,-0.16733214473665572,0.0,0.9305057818197585
39263.0,0.0004,0.0035,0.9205,0,0,0,0.12590425393063434,-0.16616324484700795,0.0,0.9205067408770019
39274.0,0.0015,0.0004,0.9154,0,0,0,0.12656472757249693,-0.16498799314273382,0.0,0.9154013163634843
39285.0,0.0039,0.0005,0.9257,0,0,0,0.12695554782069143,-0.1641047260319882,0.0,0.9257083503998438
39296.0,-0.0007,0.0013,0.9243,0,0,0,0.12720746770058386,-0.1629105834126164,0.0,0.9243011792700473
39307.0,0.0023,0.0055,0.9229,0,0,0,0.12785771664229487,-0.16181702485810212,0.0,0.9229192543229338
39318.0,0.0055,0.0046,0.918,0,0,0,0.1287482586304346,-0.16121272424821628,0.0,0.9180280006622892
39329.0,0.0002,0.0043,0.9204,0,0,0,0.12981103759035037,-0.16038287962589495,0.0,0.9204100662204863
39340.0,0.002,0.0011,0.9246,0,0,0,0.13062476375242785,-0.15957807634543622,0.0,0.9246028174302736
39351.0,0.0015,0.0067,0.9276,0,0,0,0.1319110043266294,-0.15873414930343743,0.0,0.9276254093113232
39362.0,0.0024,0.0013,0.9261,0,-0.5525926666666665,0,0.13294194732874295,-0.16392640213167564,0.0,0.9261040222350835
39373.0,0.0038,0.0026,0.9237,0,-0.5220926666666665,0,0.1339079073802996,-0.16891640127696148,0.0,0.9237114755160293
39384.0,0.0001,0.0034,0.923,0,0,0,0.13491413231424593,-0.16792702704147938,0.0,0.923006267584354
39395.0,0.0026,0.0027,0.9198,0,0,0,0.13586829034458459,-0.16704213230334133,0.0,0.919807637498189
39406.0,0.0043,0.0049,0.9272,0,-0.5220926666666665,0,0.13704459754767095,-0.1720882220378967,0.0,0.9272229181809517
39417.0,0.0039,0.0022,0.9233,0,0,0,0.13808110306219099,-0.1716132937449329,0.0,0.9233108577288583
39428.0,0.0016,0.0054,0.9205,0,0,0,0.13939045087310245,-0.17105066603703709,0.0,0.9205172296051823
39439.0,0.0013,-0.001,0.9194,0,0,0,0.14014394718691386,-0.17037484076506879,0.0,0.9194014629094299
39450.0,0.0029,0.0046,0.9252,0,0,0,0.14109844088799328,-0.1697973774918692,0.0,0.9252159801905715
39461.0,0.0024,0.0059,0.9298,0,0,0,0.14238749230618084,-0.16924432534485598,0.0,0.9298218162637398
39645.0,0.0039,0.0049,0.9313,0,0,0,0.14384396002756974,-0.16889933285744563,0.0,0.9313210563495277
39656.0,-0.001,0.0027,0.9235,0,0,0,0.14517600827522714,-0.1681336304449709,0.0,0.9235044883485949
39667.0,0.0028,0.0043,0.9379,0,0,0,0.14658724766390813,-0.167465167256251,0.0,0.9379140365726487
39678.0,0.0013,0.0024,0.9379,0,0,0,0.14783039660310152,-0.16669818994239935,0.0,0.9379039716303583
39689.0,0.0032,0.0055,0.9106,0,0,0,0.14931892236857483,-0.16608870191821767,0.0,0.9106222323224927
39700.0,0.0061,0.0035,0.9146,0,-0.5754926666666664,0,0.15077173911428585,-0.1721818693924835,0.0,0.9146270387431151
39711.0,0.0011,0.0005,0.9226,0,0,0,0.15181432641845083,-0.17176518448928588,0.0,0.9226007912418025
39722.0,0.0004,0.0013,0.9127,0,0,0,0.15259618818794693,-0.17110717801133846,0.0,0.9127010134759356
39733.0,0.0018,0.0039,0.926,0,-0.5678926666666664,0,0.15346350991053956,-0.1765290721949331,0.0,0.9260099621494361
39744.0,-0.0001,0.0044,0.9293,0,-0.5372926666666666,0,0.15446500009621547,-0.1812264525632377,0.0,0.9293104217644392
39755.0,0.0017,0.0001,0.9208,0,-0.5067926666666667,0,0.15505302515617994,-0.18546915855541782,0.0,0.9208015747162903
39766.0,0.0024,-0.0007,0.926,0,0,0,0.15517386976347344,-0.18422051419350072,0.0,0.9260033747238722
39777.0,-0.0001,0.0035,0.9271,0,0,0,0.15540306461575326,-0.18273758702864232,0.0,0.9271066119923858
39788.0,0.0052,0.0045,0.9325,0,0,0,0.1558491734391839,-0.18170657628952758,0.0,0.9325253562236258
39799.0,0.0028,0.0076,0.9264,0,0,0,0.15687181830796892,-0.18078027319113066,0.0,0.9264354051956348
39810.0,0.0031,0.0013,0.9186,0,0,0,0.1576238186679199,-0.179987686900876,0.0,0.9186061506434626
39821.0,0.0005,0.0022,0.9199,0,0,0,0.15824640170852003,-0.17899191751774493,0.0,0.9199027666009055
39832.0,0.0013,0.001,0.9248,0,0,0,0.1586027462918276,-0.17791667237202938,0.0,0.9248014543673685
39843.0,0.0052,0.0037,0.9279,0,0,0,0.15905715191949862,-0.1772560962416748,0.0,0.9279219471485735
39854.0,-0.0006,0.0026,0.926,0,0,0,0.1594615111086524,-0.1762441695024594,0.0,0.92600384448446
39865.0,0.0013,0.0018,0.922,0,0,0,0.15972329316266495,-0.17516096855696936,0.0,0.9220026735319156
40220.0,0.0006,0.0026,0.9227,0,0,0,0.15995767198047256,-0.17393005442918155,0.0,0.922703858234049
40231.0,-0.0013,0.0024,0.9264,0,0,0,0.16014125049587621,-0.17233489453438572,0.0,0.9264040209325519
40242.0,0.0018,0.0026,0.9227,0,0,0,0.16030580664660263,-0.17080677924841242,0.0,0.9227054188634636
40253.0,-0.0006,0.0005,0.9303,0,0,0,0.16019030433929252,-0.16904189755912857,0.0,0.930300327851173
40264.0,0.0002,0.005,0.9252,0,0,0,0.16038743152461712,-0.16717191231872416,0.0,0.9252135321102908
40275.0,0.0004,0.0034,0.9242,0,0,0,0.16066203248321087,-0.16523790567117289,0.0,0.9242063405971634
40286.0,0.0004,0.0004,0.9218,0,0,0,0.16063351101293843,-0.1632516293909063,0.0,0.9218001735734269
40297.0,0.0009,0.0043,0.9237,0,0,0,0.16082035950632453,-0.16128489791763492,0.0,0.923710447055786
40308.0,0.002,0.0045,0.9268,0,0,0,0.16122040296990675,-0.15947522526639948,0.0,0.9268130825576427
40319.0,0.0004,0.002,0.9237,0,0,0,0.1614990222891054,-0.15760985354904933,0.0,0.9237022518106145
40330.0,-0.0021,-0.0005,0.9198,0,0,0,0.16136139731826643,-0.15538958443604806,0.0,0.9198025331558942
40341.0,0.0015,0.0031,0.9231,0,0,0,0.16130204118868616,-0.15330664403066888,0.0,0.9231064239837138
40352.0,0.0,0.0046,0.9319,0,0,0,0.16149463717881296,-0.15116208924364952,0.0,0.9319113530803237
40363.0,0.0051,0.0022,0.925,0,0,0,0.16161404324073872,-0.14960018036585035,0.0,0.9250166755253659
40374.0,0.002,0.0044,0.926,0,0,0,0.16194086586076775,-0.14817099150306354,0.0,0.9260126133050242
40385.0,0.0015,0.0001,0.9215,0,0,0,0.1619188250596539,-0.14680053377590255,0.0,0.9215012262607142
40396.0,0.0049,0.001,0.9205,0,0,0,0.16170081901340064,-0.14590638758805466,0.0,0.9205135849079035
40407.0,0.0046,0.004,0.9269,0,-0.5372926666666666,0,0.16168015666654445,-0.15118761006566972,0.0,0.9269200450955842
40418.0,-0.0028,0.0038,0.9417,0,0,0,0.1618033432626489,-0.14997999398598574,0.0,0.9417118295954447
40429.0,-0.001,0.0023,0.9288,0,0,0,0.16187201976953117,-0.14849076328641586,0.0,0.9288033860834056
40440.0,0.0022,-0.0001,0.9193,0,0,0,0.16159876410399313,-0.14715365709608927,0.0,0.9193026378728606
40451.0,0.0027,0.0015,0.9293,0,0,0,0.16121913122182097,-0.14601354713825893,0.0,0.9293051328815525
40462.0,0.0012,0.0028,0.9293,0,0,0,0.16090730994385744,-0.1448638133555888,0.0,0.9293049929920747
40473.0,0.0026,0.0055,0.9227,0,0,0,0.16099210758271015,-0.1438823932235131,0.0,0.9227200550546194
40484.0,-0.002,0.0048,0.9172,0,0,0,0.16134229210148712,-0.14248293733818312,0.0,0.9172147403961626
40495.0,-0.0009,0.004,0.9167,0,-0.5830926666666665,0,0.16182730935746342,-0.1471390283388897,0.0,0.9167091687116475
40506.0,0.0044,0.0018,0.9247,0,-0.5678926666666664,0,0.16215444265404544,-0.15196156376373418,0.0,0.9247122200987721
40517.0,0.0035,0.0022,0.9318,0,0,0,0.16238859412475987,-0.15083377705072534,0.0,0.931809170377712
40528.0,0.0009,0.0038,0.9257,0,0,0,0.16274080743206676,-0.14964876448266945,0.0,0.9257082369731836
40539.0,-0.0005,0.0022,0.9208,0,0,0,0.1630001286476144,-0.1482431014107954,0.0,0.9208027638968076
40550.0,-0.0002,0.0015,0.9224,0,0,0,0.16308957063714322,-0.14668238802539024,0.0,0.9224012413261378
40561.0,0.0007,0.0043,0.928,0,-0.6212926666666667,0,0.16337392094174552,-0.15179626190892137,0.0,0.9280102262367587
40572.0,0.0054,0.0082,0.9285,0,0,0,0.164312310697184,-0.15064366320188688,0.0,0.9285519102344252
40583.0,0.0012,0.0028,0.9272,0,0,0,0.16515724857852782,-0.14947401256751575,0.0,0.9272050043005592
40594.0,0.0032,0.0016,0.9144,0,0,0,0.16577495636148898,-0.14854213083738446,0.0,0.9144069990983228
40605.0,0.0028,0.0035,0.9247,0,0,0,0.16642196758724886,-0.14777016523711364,0.0,0.9247108629187828
40616.0,0.0032,0.0038,0.9264,0,0,0,0.1671299739282425,-0.14718992859369914,0.0,0.9264133202842023
40627.0,0.0016,0.0042,0.9224,0,0,0,0.16794169881199686,-0.1465826319851899,0.0,0.9224109496314535
40638.0,-0.0031,-0.001,0.9155,0,0,0,0.1682012502194306,-0.14537116262364283,0.0,0.915505794629395
40649.0,0.0027,0.0015,0.9258,0,-0.5296926666666666,0,0.1682790316222501,-0.15005655661808986,0.0,0.925805152286376
40660.0,-0.0001,-0.0011,0.9271,0,0,0,0.16787352077568374,-0.14873685539549406,0.0,0.927100657965466
40671.0,0.0059,0.0015,0.9297,0,-0.5525926666666665,0,0.16736438162567613,-0.1539626534682612,0.0,0.9297199309469492
40682.0,-0.0002,0.0023,0.9287,0,0,0,0.16686438318709962,-0.15287695568055726,0.0,0.928702869598237
40693.0,0.0001,0.002,0.9274,0,0,0,0.16633669253183384,-0.151625537032284,0.0,0.9274021619556427
40704.0,0.0004,0.0068,0.9258,0,-1.1327926666666666,0,0.16638056918596034,-0.16247947915073646,0.0,0.9258250590689365
40715.0,0.0612,0.0756,0.925,0,-1.3006926666666665,2.7957253333333334,0.1754485549976202,-0.18233808733179152,0.015376489333333333,0.9300998871089062
40726.0,-0.0457,-0.0304,0.9005,0,-1.6441926666666666,2.8262253333333334,0.17935118721244317,-0.19894091310500872,0.030920728666666668,0.902171214349028
40737.0,-0.083,0.186,0.8914,-0.677753666666667,0.7069073333333334,6.673625333333334,0.19831996151934078,-0.1792801493752366,0.067625668,0.914373534175175
40748.0,-0.0673,0.1062,0.9589,-0.952553666666667,-1.2395926666666663,25.284325333333335,0.22401008947206824,-0.1734835419928584,0.20668945733333333,0.9671075121205501
40759.0,-0.0266,-0.0227,0.9138,-1.234953666666667,-1.1785926666666664,30.879725333333333,0.23937310019584931,-0.16538441819216695,0.37652794666666667,0.9144688567687802
40770.0,-0.0079,0.0132,0.8882,-1.1433536666666668,-1.8426926666666668,32.230825333333335,0.253858463072876,-0.16529643877787337,0.553797486,0.8883332088805416
40781.0,-0.0305,0.094,0.9388,-1.1433536666666668,-2.7433926666666664,38.44462533333333,0.27651614650644113,-0.1728224533898523,0.7652429253333333,0.9439871238528627
40792.0,-0.056,0.0972,0.9448,-1.2578536666666669,-3.6212926666666667,48.99422533333333,0.3054300173824434,-0.18463228110607377,1.0347111646666667,0.9514362196174792
40803.0,-0.0732,0.0416,0.9349,-1.685353666666667,-6.720492666666667,56.36822533333333,0.32944792804808704,-0.22295108098605396,1.3447364039999998,0.9386835515763552
40814.0,-0.0024,-0.056,0.8923,-2.372353666666667,-6.728192666666667,58.11632533333333,0.3339560639980346,-0.2632344392873399,1.6643761933333332,0.8940587508659595
40825.0,0.2292,-0.1429,0.8556,2.413846333333333,-1.8120926666666666,37.97132533333333,0.368659833371852,-0.28102041445957554,1.8732184826666665,0.8972203798398697
40836.0,0.0093,-0.0201,1.0607,0,-5.590792666666667,25.872025333333333,0.37241731212965073,-0.3399303889797715,2.015514622,1.0609311900401457
40847.0,-0.0519,0.1908,0.9221,-2.4487536666666667,-14.033492666666666,30.123925333333332,0.3721308478558548,-0.4818472851340327,2.1811962113333334,0.9430623839386237
40858.0,0.0052,0.1372,0.8175,-1.2655536666666671,-5.422792666666666,43.17742533333333,0.3987308023454188,-0.528980486825525,2.418672050666667,0.828949413414353
40869.0,0.0481,-0.035,0.9525,-0.922053666666667,0,45.81862533333333,0.41922593662504865,-0.5228721089278278,2.67067449,0.9543557303228184
40880.0,0.0392,0.0544,0.9407,-1.311353666666667,-3.1632926666666665,44.36822533333333,0.4379478097266376,-0.5553969807202251,2.9146997293333334,0.9430866821241831
40891.0,0.0002,0.1935,0.9165,-0.815153666666667,-4.224392666666667,51.87202533333333,0.481543576894258,-0.5978523362422643,3.199995868666667,0.9367040834756727
40902.0,-0.0317,0.2094,0.9215,-1.0212536666666672,-2.0869926666666667,62.48272533333333,0.5418724862504348,-0.6116770975328755,3.5436508580000003,0.9455239288352252
40913.0,-0.0421,0.1479,0.9413,-1.318953666666667,-1.3922926666666666,68.56672533333332,0.6078069064409036,-0.6121819391703341,3.920767847333334,0.9537780192476654
40924.0,-0.0228,0.126,0.9338,-1.670153666666667,-2.3769926666666668,69.00942533333333,0.6749961253339224,-0.62069686470305,4.300319686666667,0.9425382114269957
40935.0,-0.0059,0.1337,0.9279,-1.8533536666666672,-2.2319926666666667,66.55912533333333,0.7455852535244759,-0.627235667914128,4.666394876,0.9375014186655932
40946.0,0.0291,0.1193,0.8704,0,-2.0640926666666664,61.97892533333333,0.839686718533341,-0.6359419282902162,5.007278965333334,0.8790196016016935
40957.0,-0.0203,0.1287,0.9769,0,0,57.94842533333333,0.9362574207925095,-0.6198155409023102,5.325995304666667,0.9855502980568774
40968.0,-0.0293,0.1622,0.9419,-1.456353666666667,-4.399892666666666,53.81862533333333,1.0235983143373266,-0.6481677504436502,5.621997744,0.9562128110415589
40979.0,-0.0404,0.0936,0.8776,0,-1.3693926666666667,49.84152533333333,1.1248872750847427,-0.6389006341034154,5.896126133333333,0.8835014883971617
40990.0,-0.057,0.0712,0.9916,-1.372353666666667,-1.5678926666666664,43.06292533333333,1.2051328554565317,-0.6261111765046472,6.132972222666666,0.9957856194984943
41001.0,-0.0013,0.0559,0.8534,-2.601453666666667,-3.6823926666666664,39.11632533333333,1.2665937601378272,-0.6377761337493338,6.348112012,0.8552298287594979
41012.0,0.0115,0.0227,0.8434,0,6.798507333333333,35.673625333333334,1.347269070498235,-0.5390968508038501,6.544316951333333,0.8437837993230257
41023.0,0.0243,-0.1096,0.8773,-0.952553666666667,16.462707333333334,29.719425333333334,1.3921822658927219,-0.342488178708685,6.707773790666667,0.8844534696636109
41034.0,0.0186,-0.1248,0.9589,-0.563253666666667,4.004607333333333,19.200325333333335,1.4162364020311509,-0.28731517265106565,6.81337558,0.9671660715719922
41045.0,0.0652,-0.0883,0.9728,1.0550463333333329,2.6917073333333335,13.498025333333334,1.440169045822577,-0.2560570324760464,6.8876147193333335,0.9789728137185425
41056.0,0.0851,-0.0201,0.8934,1.139046333333333,0,13.085825333333334,1.458044173865789,-0.2647209813742449,6.959586758666667,0.89766897016662
41067.0,0.0428,-0.0232,0.937,0.558846333333333,0,14.154525333333334,1.4629163390803,-0.27713802452906167,7.037436648000001,0.9382638648056314
41078.0,0.0367,-0.0608,0.8866,0,0,15.498025333333334,1.451360472369036,-0.29218069571251926,7.122675787333334,0.8894397618726072
41263.0,0.0448,0.0177,0.8158,0.9558463333333329,0.9665073333333335,-0.5630746666666666,1.6139731404273332,-0.135503524497302,7.070591380666667,0.817220882014159
41274.0,0.0146,0.0039,0.851,-1.318953666666667,-1.8731926666666667,0,1.5845837757934758,-0.17693335541971858,7.070591380666667,0.8511341668620759
41285.0,-0.0038,0.0126,0.9834,0,-0.5449926666666665,0,1.5697385673905242,-0.20014843540453212,7.070591380666667,0.9834880578837752
41296.0,0.0067,0.0074,0.9391,0,0,0,1.5543857574762399,-0.21571660460854014,7.070591380666667,0.9391530546188944
41307.0,0.0057,0.0076,0.892,-0.5479536666666671,-0.6899926666666665,0,1.5328178996060065,-0.237211300115964,7.070591380666667,0.892050587130573
41318.0,-0.001,0.0077,0.9266,-0.601453666666667,-0.6212926666666667,0,1.5105049550283687,-0.25554330495143646,7.070591380666667,0.9266325323449419
41329.0,0.0006,0.0106,0.9401,0,0,0,1.4949260853041508,-0.2652030653441707,7.070591380666667,0.9401599491575888
41340.0,0.0057,0.007,0.9187,0,0,0,1.4790665109795411,-0.2739005381602799,7.070591380666667,0.918744349642489
41351.0,0.0062,0.0093,0.9219,0,-0.7052926666666663,0,1.4632745222886963,-0.28939341078404013,7.070591380666667,0.92196775431682
41362.0,0.0031,0.0116,0.9199,0,0,0,1.44786467044625,-0.296018937249288,7.070591380666667,0.9199783584411103
41373.0,0.0028,0.0061,0.922,0,0,0,1.4321320844448047,-0.3016135449136535,7.070591380666667,0.9220244302620186
41384.0,0.0022,0.0068,0.922,0,0,0,1.416234417873839,-0.3062137089872881,7.070591380666667,0.9220277002346513
41395.0,0.0024,0.0078,0.9283,0,-0.5601926666666666,0,1.4003397080103062,-0.31598550763790967,7.070591380666667,0.9283358713310609
41406.0,0.0043,0.012,0.924,0,0,0,1.3850093556176348,-0.319068061529727,7.070591380666667,0.9240879233060023
41417.0,0.0017,0.0111,0.9167,0,0,0,1.3701052033553769,-0.3213628650441228,7.070591380666667,0.9167687767370789
41428.0,0.0045,0.0071,0.9264,0,0,0,1.3550947446968875,-0.32329844706497857,7.070591380666667,0.9264381360889674
41439.0,-0.0096,0.0345,1.0488,-2.0746536666666673,-3.499192666666666,0,1.3208654563017845,-0.36079619655434414,7.070591380666667,1.0494111920500944
41450.0,0.0195,-0.0178,0.6931,1.352746333333333,0,0,1.3208607451050147,-0.3618059965916042,7.070591380666667,0.6936026960731915
41461.0,0.0249,-0.0009,0.8273,-2.9830536666666667,-4.392292666666666,0.8949253333333334,1.2729145558974866,-0.4125575998858679,7.075513470000001,0.8276751234633067
41472.0,0.0006,0.0129,0.9576,-1.784653666666667,-2.6136926666666667,0.5667253333333333,1.2393541695123695,-0.44207243042609273,7.078630459333334,0.9576870731089566
41483.0,-0.0017,0.0023,0.9644,-0.6243536666666671,-1.1403926666666666,0.6736253333333333,1.218084421439026,-0.4538869908088135,7.082335398666667,0.9644042409695222
41827.0,0.0066,0.0018,0.8982,-0.784653666666667,-1.0105926666666667,0,0.938663819649796,-0.7938684982464796,7.082335398666667,0.8982260517264015
41838.0,0.0042,0.0032,0.9282,0,-0.6441926666666666,0,0.928793200133702,-0.7929799201118611,7.082335398666667,0.9282150181935218
41849.0,0.0031,0.0051,0.9314,0,0,0,0.918852253750776,-0.7847337323771904,7.082335398666667,0.9314191215559191
41860.0,0.0015,0.0048,0.9187,0,0,0,0.9088441946304016,-0.7760757075763487,7.082335398666667,0.918713763911263
41871.0,0.0074,0.0112,0.9231,0,0,0,0.8995942440276969,-0.7678075618158776,7.082335398666667,0.9231976007334508
41882.0,0.0063,0.005,0.9258,0,0,0,0.8902526945001275,-0.7597597671983615,7.082335398666667,0.9258349366922809
41893.0,0.006,0.0052,0.9261,0,0,0,0.880874271813562,-0.7518846046246835,7.082335398666667,0.9261340345759895
41904.0,0.0088,0.0074,0.9326,0,0,-0.5477746666666667,0.8717509461654309,-0.7445213671041876,7.079322638000001,0.9326708744246279
41915.0,0.0076,0.0083,0.9299,0,0,0,0.8629852698635614,-0.7374762790418349,7.079322638000001,0.929968096226962
41926.0,0.0067,0.0118,0.9225,0,0,0,0.8549950680409237,-0.7306199203476509,7.079322638000001,0.9225997940602414
41937.0,0.0074,0.0079,0.92,0,0,0,0.8472216390572122,-0.7240330243631776,7.079322638000001,0.9200636771441421
41948.0,0.0077,0.0061,0.9263,0,0,0,0.8394245762032748,-0.7177287330335533,7.079322638000001,0.9263520874915758
41959.0,0.0074,0.0089,0.9253,0,0,0,0.831971656223591,-0.7116497311780511,7.079322638000001,0.9253723899058152
41970.0,0.0051,0.0077,0.9271,0,0,0,0.8246860408777711,-0.7054940104198648,7.079322638000001,0.9271460025260315
41981.0,0.0042,0.0074,0.9192,0,0,0,0.8175332803896563,-0.6991780218603605,7.079322638000001,0.9192393812277626
41992.0,0.0065,0.0031,0.9181,0,0,0,0.8099783005660468,-0.6930201296982554,7.079322638000001,0.9181282426763704
42003.0,0.0087,0.0072,0.9281,0,0,0,0.8025838364272563,-0.6872789202341321,7.079322638000001,0.9281687023381041
42014.0,0.0056,0.011,0.9258,0,0,0,0.7958200056816384,-0.6815333083510751,7.079322638000001,0.9258822819343719
42025.0,0.0076,0.011,0.9297,0,0,0,0.7896214547367719,-0.6760403207290635,7.079322638000001,0.9297961335690743
42036.0,0.0088,0.0082,0.9236,0,0,0,0.7835924216861908,-0.6709353559216547,7.079322638000001,0.9236783206289947
42047.0,0.0079,0.0066,0.9189,0,0,0,0.7775312741196935,-0.6660754600514728,7.079322638000001,0.9189576595251819
42058.0,0.0057,0.0022,0.9269,0,0,0,0.7708994762426645,-0.6611609409876193,7.079322638000001,0.9269201367971245
42069.0,0.0029,0.007,0.9247,0,0,0,0.7643758417378133,-0.6558626650383967,7.079322638000001,0.9247310419792341
42080.0,0.0066,0.0072,0.9166,0,0,0,0.7579932631711945,-0.6507027524860959,7.079322638000001,0.9166520386711633
42091.0,0.007,0.0052,0.912,0,0,0,0.7515036512431814,-0.6457289584850022,7.079322638000001,0.9120416876437174
42102.0,0.0071,-0.0037,0.9069,0,1.3863073333333333,-0.8378746666666665,0.7438284845460571,-0.6260019907720263,7.074714327333334,0.9069353394812665
42113.0,0.0343,-0.0096,0.875,2.390946333333333,4.134407333333334,-3.8225746666666667,0.760176765777305,-0.5805604872046286,7.053690166666668,0.8757246427958962
42124.0,-0.0056,-0.0663,0.8715,5.917646333333333,12.142107333333334,-16.730974666666665,0.8053569875010322,-0.447886633875073,6.961669806000001,0.8740362120644659
42135.0,-0.0315,0.0104,0.9401,5.7573463333333335,11.691707333333333,-26.990574666666667,0.8495598088621736,-0.3177618620847453,6.813221645333334,0.9406850801410641
42146.0,-0.0116,0.0396,0.946,5.139046333333333,9.645907333333334,-29.547774666666665,0.891341326518522,-0.2103419533023869,6.650708884666667,0.9468995300452947
42157.0,0.0078,0.0408,0.9298,5.016946333333333,9.554307333333334,-27.883674666666668,0.9357193933272144,-0.10673558566052055,6.497348674,0.9307274144452821
42168.0,0.0155,0.0315,0.943,3.658146333333333,7.271807333333333,-27.738574666666665,0.9676494747443649,-0.0313670744943553,6.344786513333334,0.9436532731888339
42179.0,0.0096,0.0188,0.9463,3.2840463333333325,5.012307333333334,-31.64697466666667,0.9960920778314921,0.017473825846948326,6.170728152666667,0.9465354140231628
42190.0,0.0013,0.0186,0.9417,2.024546333333333,0.6840073333333334,-35.50197466666667,1.0114303608633497,0.019110050447496106,5.975467292,0.9418845682991096
42201.0,-0.0261,0.0295,0.9343,0.948246333333333,-1.9036926666666667,-36.42567466666667,1.01715351314276,-0.003409302857770711,5.775126081333333,0.9351299107610664
42212.0,-0.0463,0.0469,0.9264,0,-3.9571926666666664,-34.25767466666667,1.0167679637636216,-0.041725329025410485,5.5867088706666665,0.9287412233771042
42223.0,-0.052,0.0806,0.925,0,-2.9495926666666663,-31.181374666666667,1.0243650232555328,-0.06240610876477153,5.41521131,0.9299598701019308
42234.0,-0.0703,0.1082,0.9056,0.9787463333333329,-1.0487926666666665,-29.845474666666668,1.0530279784178453,-0.05447365322517744,5.251061199333334,0.9147462435014423
42245.0,-0.059,0.1212,0.9058,1.459646333333333,0,-29.089774666666667,1.0975457158286521,-0.029831814091565857,5.091067438666667,0.9157751252354478
42256.0,-0.0522,0.1008,0.9106,2.253546333333333,1.9970073333333334,-27.639374666666665,1.1573172238028222,0.02000831637558606,4.939050878000001,0.9176479935138527
42267.0,-0.0414,0.0941,0.9347,2.780246333333333,3.042807333333333,-27.074474666666667,1.2274138471387133,0.0824579217419615,4.790141267333334,0.9403365674055221
42278.0,-0.0474,0.1161,0.9384,2.917646333333333,3.3329073333333334,-28.219574666666666,1.305518305200136,0.14960962903616004,4.634933606666667,0.9467420609648649
42289.0,-0.0643,0.1744,0.9351,3.2535463333333325,1.8520073333333333,-31.288274666666666,1.3999907880402567,0.20409077524924682,4.462848096000001,0.9533949129295793
42300.0,-0.0786,0.2469,0.9236,1.681046333333333,-0.5372926666666666,-32.64697466666667,1.4974630785462262,0.23770891244637485,4.283289735333335,0.9592572803997893
42311.0,-0.0613,0.2327,0.9128,1.749746333333333,-1.4380926666666665,-28.959974666666668,1.6117314404575986,0.26424346407615296,4.124009874666668,0.94398666304138
42322.0,-0.0258,0.1729,0.9125,2.131446333333333,0.6535073333333334,-20.982874666666667,1.736729439177889,0.31137114000499866,4.008604064000002,0.9290943439715904
42333.0,-0.0245,0.1049,0.9399,2.436746333333333,4.264207333333333,-12.395074666666666,1.861815518997444,0.3949037773796978,3.940431153333335,0.9460529953443412
42344.0,-0.0369,0.077,0.9547,4.039846333333333,3.4703073333333334,-7.402774666666666,1.9974338040864366,0.4682565952346439,3.8997158926666686,0.9585106676506004
42355.0,-0.0421,0.0698,0.9569,7.780246333333333,1.4779073333333335,-4.822574666666666,2.1659514351728424,0.5193373461104269,3.8731917320000018,0.9603655866387549
42366.0,-0.0222,0.0795,0.8928,9.963446333333334,1.3253073333333334,-2.9828746666666666,2.3524373131764373,0.5662079562693606,3.8567859213333353,0.8966074559136792
42377.0,0.0012,0.0778,0.9093,10.123746333333333,4.103907333333334,1.4980253333333333,2.5345177790168427,0.6377246047029747,3.8650250606666687,0.9126230163654651
42388.0,-0.0056,0.0449,0.9401,9.139046333333333,3.9588073333333336,7.833925333333333,2.6957497711177076,0.7030241217611722,3.908111650000002,0.9411882808450178
42399.0,-0.0051,0.0332,0.9351,8.024546333333333,3.3100073333333335,14.727025333333334,2.834445477338661,0.757087564957029,3.9891102893333357,0.9357030832480997
42410.0,-0.0031,0.0155,0.8975,4.0016463333333325,3.9588073333333336,22.467525333333334,2.9186614052094324,0.8142991324925452,4.112681678666669,0.8976391869788217
42421.0,-0.0027,-0.0435,0.9103,-3.0288536666666666,1.0046073333333334,30.276625333333335,2.9104360899758017,0.8359291109656202,4.2792031180000025,0.9113427620824122
42432.0,0.0199,-0.1415,0.9056,-11.769353666666667,-3.5067926666666662,35.50562533333333,2.7825032440445328,0.8033570222699964,4.474484057333336,0.9168040248602751
42443.0,0.056,-0.2676,0.9088,-20.540353666666668,-7.163292666666667,35.12392533333333,2.5236472679189617,0.7228770145525342,4.667665646666669,0.9490327707724323
42454.0,0.1409,-0.4259,1.1134,-26.639553666666668,-10.086992666666665,30.910225333333333,2.1501137720322294,0.5937815449449056,4.8376718860000025,1.200376266009954
42465.0,0.0651,-0.4294,1.1461,-11.899153666666667,-36.84269266666667,29.795725333333333,1.8961170748034342,0.17177534268958475,5.001548375333336,1.2256294627659698
42476.0,0.2284,-0.2539,0.4061,-5.380053666666667,14.111507333333334,11.368225333333333,1.6893027807521566,0.2791610405045084,5.064073614666669,0.5306118920642469
42487.0,-0.0137,-0.0356,0.9692,-1.402953666666667,-8.827392666666666,0,1.536774850948729,0.14322977144963453,5.064073614666669,0.9699503543996466
42498.0,-0.0203,0.0315,0.9626,-1.708253666666667,0.9970073333333335,0,1.3987425998815606,0.12215657115050699,5.064073614666669,0.9633291753082122
42509.0,-0.0195,0.0122,0.9816,0.7726463333333329,-1.0563926666666665,0,1.301137226535175,0.08486899326703935,5.064073614666669,0.9818694668844734
42520.0,0.0122,0.0151,0.9199,-0.593753666666667,1.8978073333333334,0,1.2003756957917004,0.08099706191659237,5.064073614666669,0.9201048092472944
42531.0,0.0083,0.0137,0.8678,0,-2.804492666666667,0,1.1161898650712172,0.02761632776460078,5.064073614666669,0.8679478210123003
42542.0,-0.0233,0.0034,0.944,-1.0823536666666669,0,0,1.0286059372544654,0.010647405123944551,5.064073614666669,0.944293624885819
42553.0,0.0105,0.0256,0.9301,-1.326553666666667,0,0,0.9487286189719878,-0.005630529370098742,5.064073614666669,0.9305114830027623
42564.0,-0.0046,0.006,0.943,-3.2426536666666665,1.7375073333333335,0,0.8551304786803252,-0.0006403268328924686,5.064073614666669,0.9430303070421437
42575.0,-0.0068,0.0072,0.9001,-3.7846536666666672,2.4169073333333335,0,0.7623315357039578,0.01377449198634836,5.064073614666669,0.9001544811864239
42586.0,-0.0093,0.0082,0.9358,-2.0136536666666673,1.1573073333333335,0,0.6950369898021652,0.016660437613925026,5.064073614666669,0.9358821346729512
42597.0,0.002,0.0145,0.9181,-2.158653666666667,1.5543073333333335,0,0.6323474663935386,0.024447393049038917,5.064073614666669,0.9182166737758578
42608.0,-0.0044,0.0157,0.9247,-2.914353666666667,1.8901073333333334,0,0.5672739041714745,0.03711129586638383,5.064073614666669,0.9248437381525594
42619.0,-0.0173,0.0042,0.939,-2.807553666666667,2.6535073333333337,0,0.5073089887684268,0.060631527258272186,5.064073614666669,0.9391687441562352
42630.0,-0.0175,-0.002,0.9167,0,-0.7662926666666667,0,0.48038296754887627,0.04941966155991521,5.064073614666669,0.9168692055031622
42641.0,-0.0287,0.0005,0.9453,4.948246333333333,-4.987692666666666,0,0.5091135660757429,-0.003342670031460001,5.064073614666669,0.9457357083244768
42652.0,0.0038,0.0151,0.9357,6.192446333333333,-6.094592666666667,0,0.5540651858540465,-0.06765357712981747,5.064073614666669,0.9358295464452915
42663.0,0.0122,0.0278,0.9161,2.230646333333333,-3.3388926666666667,0,0.5600026416562507,-0.10261358393604343,5.064073614666669,0.9166029074795694
42674.0,-0.0184,0.0049,0.9248,0.5130463333333329,0,0,0.5486148804399725,-0.09857033138224741,5.064073614666669,0.9249960053967801
42685.0,-0.0516,0.1129,0.8811,2.2382463333333327,0,1.5285253333333335,0.5706488889692564,-0.0883773132276274,5.072480504000002,0.8898012025166071
42869.0,-0.0247,0.0221,0.9618,0,-4.002992666666666,0,0.56992835854833,-0.7980027525391986,5.072480504000002,0.962370895237382
42880.0,-0.0238,0.0031,0.9032,0,1.4856073333333335,0,0.5685604650191215,-0.753666408015368,5.072480504000002,0.9035188376564155
42891.0,-0.0093,0.0098,0.9282,-1.448753666666667,-1.1556926666666665,0,0.5518101560595958,-0.7387785157573193,5.072480504000002,0.9282983195072584
42902.0,-0.0081,0.0288,0.9474,0,0,0,0.5535292095759249,-0.7119834022909406,5.072480504000002,0.9478722540511458
42913.0,-0.001,0.0209,0.9071,0,-1.2395926666666663,0,0.5565536072553758,-0.7001430622693229,5.072480504000002,0.9073412919072955
42924.0,-0.0118,0.0116,0.9255,0,-0.8960926666666666,0,0.5595441406879568,-0.6844714021897319,5.072480504000002,0.925647908224288
42935.0,-0.0144,0.0115,0.9117,-0.5098536666666671,0,0,0.5570112860590113,-0.6587844663100224,5.072480504000002,0.9118862319390506
42946.0,-0.0148,0.0093,0.9207,-0.929653666666667,0,0,0.549746054076911,-0.6329704152639316,5.072480504000002,0.9208659077194681
42957.0,-0.0022,0.0071,0.9033,-0.776953666666667,0,0,0.5437925453158818,-0.6086387781615399,5.072480504000002,0.9033305817916274
42968.0,0.0228,-0.0168,0.917,4.360446333333333,6.600107333333334,-0.7614746666666667,0.5899111710658115,-0.5176464320460489,5.068292393333335,0.917437234910378
42979.0,-0.0293,-0.0157,0.9773,0,0.6382073333333335,-5.234774666666667,0.5851047262620543,-0.4899270479797359,5.039501132666668,0.977865159416164
42990.0,0.0208,-0.022,0.9094,1.4062463333333328,4.073307333333334,-6.967674666666667,0.592138716585642,-0.4293418566596646,5.001178922000002,0.9099038410733301
43001.0,-0.0022,-0.0203,0.9292,4.223046333333333,0.9436073333333335,-10.227174666666667,0.6265224894263016,-0.40412483354494777,4.944929461333335,0.9294243218250747
43012.0,-0.0079,0.0197,0.9381,4.093246333333333,2.1497073333333336,-11.708074666666667,0.6611856554145645,-0.36608709192341404,4.880535050666668,0.9383400822729465
43023.0,0.0034,0.0515,0.939,3.4672463333333328,0,-14.593574666666667,0.694459618195115,-0.3530906257258734,4.800270390000001,0.9404173594739731
43034.0,-0.0178,0.0853,0.9022,-2.7464536666666675,-1.5601926666666666,-18.700474666666665,0.6697612180880412,-0.35552122610458203,4.6974177793333345,0.906398240289554
43045.0,-0.1086,0.0571,0.9722,-7.540353666666666,-2.0945926666666663,-20.127974666666667,0.598945946759055,-0.35104556726183095,4.586713918666668,0.9799118378711423
43056.0,-0.0347,0.0347,0.8584,-0.960153666666667,-1.4609926666666664,-15.578274666666665,0.6025682349909519,-0.3373757943256779,4.501033408000001,0.8598015701311553
43067.0,-0.0214,0.1042,0.9335,4.627646333333333,0.6917073333333335,-7.112674666666667,0.6766488000080346,-0.30038249056544425,4.461913697333335,0.9395412976554037
43078.0,-0.0391,0.1467,0.9224,5.9863463333333335,0,-2.7156746666666667,0.7784491403983869,-0.2690115852434151,4.446977486666668,0.9348109220585733
43089.0,-0.0433,0.1462,0.9417,7.108546333333333,2.5695073333333336,-1.6011746666666666,0.9032025478187611,-0.20778967238921087,4.438171026000002,0.9539644752295549
43445.0,0.2251,-0.0043,0.1227,-23.288453666666665,14.745107333333333,-16.402774666666666,-7.177530547541683,4.937854186214498,1.5184771353333355,0.25640551866135797
43456.0,-0.004,0.3634,1.6331,-33.42585366666667,56.79090733333333,-17.089774666666667,-7.298201027426351,5.449506546870472,1.4244833746666687,1.673048466124039
43467.0,0.0424,0.0447,0.9564,-47.616653666666664,14.317607333333333,-30.349274666666666,-7.5738198275778394,5.488008414550062,1.2575623640000022,0.9583823923674725
43478.0,0.0244,0.0082,1.2061,-47.47165366666667,13.485607333333334,-42.66227466666667,-7.852928742767496,5.514708962850918,1.0229198533333355,1.2063746557351078
43489.0,-0.084,0.0996,1.0081,-22.364753666666665,2.4703073333333334,-41.54777466666667,-7.8524675840985125,5.43308962091462,0.7944070926666688,1.016485007267692
43500.0,-0.0416,0.0701,0.7394,-10.196853666666668,5.844307333333333,-29.654674666666665,-7.71896685227945,5.394394022994226,0.6313063820000021,0.7438796475237106
43511.0,-0.0233,0.0667,0.8994,4.352746333333333,12.737507333333333,-23.868374666666668,-7.431441652243448,5.432968111635968,0.5000303213333355,0.9021707931428505
43522.0,-0.103,0.0282,1.1705,6.146646333333333,5.897807333333333,-24.784374666666665,-7.13748340011669,5.408239491950356,0.36371626066666884,1.1753614295185972
43533.0,0.0016,0.0828,0.964,2.413846333333333,-5.957192666666666,-27.288274666666666,-6.887718232431295,5.253970905844481,0.2136307500000022,0.9675507221846305
43544.0,0.0096,0.058,0.8754,3.627646333333333,-1.3388926666666667,-25.608874666666665,-6.630338829282406,5.149746957982939,0.07278193933333554,0.8773718253967356
43555.0,-0.0155,0.0374,0.9121,10.055046333333333,7.248907333333333,-23.372174666666666,-6.312049367308655,5.1405870991459865,-0.05576502133333111,0.912998039428344
43566.0,-0.0455,0.0312,0.9769,15.734446333333333,9.241307333333333,-21.311174666666666,-5.943086577555834,5.156964328916486,-0.17297648199999777,0.9784565907591404
43577.0,0.2025,-0.0847,0.804,19.787946333333334,12.096307333333334,-20.509574666666666,-5.554420686459524,5.17729020558123,-0.28577914266666443,0.8334244656836036
43588.0,0.0494,0.111,1.231,30.139046333333333,36.52370733333333,-16.799674666666665,-5.055989937691552,5.455553177199692,-0.3781773533333311,1.2369811477949049
43599.0,0.1703,0.1945,0.8165,12.581846333333333,58.04280733333333,-5.356974666666666,-4.738798141383942,5.94071098417976,-0.40764071399999774,0.8564488250911434
43610.0,0.1786,0.1827,0.7849,-5.219753666666667,87.69930733333334,14.459825333333335,-4.6043533632072355,6.716602321329316,-0.3281116746666644,0.8254364057878717
43621.0,0.0734,0.1527,0.9341,-24.883853666666667,121.18790733333333,27.849125333333333,-4.675557288636868,7.834056221928514,-0.1749414853333311,0.949340644868848
43632.0,-0.0896,0.0731,1.0291,-42.135753666666666,143.82140733333335,31.047625333333333,-4.933844442697085,9.189977265514827,-0.004179545999997786,1.035576448167879
43643.0,-0.2704,-0.0308,1.0913,-62.89145366666666,158.11150733333335,21.971325333333333,-5.425944879709693,10.709473686452442,0.11666274333333554,1.124722405751748
43654.0,-0.3917,-0.1257,1.1948,-83.72355366666666,156.86720733333334,4.910225333333333,-6.158023717703448,12.23101706657169,0.14366898266666886,1.2636361897318389
43665.0,-0.41,-0.2134,1.2288,-104.05175366666667,140.98940733333333,-16.326374666666666,-7.1264639620506,13.592060157100834,0.0538739220000022,1.312855285246626
43676.0,-0.4102,-0.1472,1.2197,-122.02125366666667,120.27950733333333,-33.242474666666666,-8.289208952694187,14.737880334914658,-0.12895968866666446,1.2952219771143478
43687.0,-0.3864,-0.0103,1.2004,-130.97545366666668,85.14210733333333,-39.41037466666667,-9.527533300103817,15.510027816395759,-0.34571674933333113,1.2610992070412224
43698.0,-0.3444,-0.0043,1.1049,-128.45635366666667,53.47030733333333,-41.33407466666667,-10.715238066884307,15.946681705559525,-0.5730541599999979,1.1573391292097577
43709.0,-0.3147,-0.0284,1.0286,-116.28075366666667,21.226007333333335,-38.38747466666667,-11.751649547917266,16.044130554257222,-0.7841852706666645,1.0760393161962067
43720.0,-0.2827,-0.0637,1.0128,-104.54795366666667,-3.285392666666666,-30.975274666666667,-12.648007201355895,15.887696044778968,-0.9545492813333312,1.0534423667196986
43731.0,-0.2343,-0.0724,0.9625,-97.03655366666666,-21.354092666666666,-21.898974666666668,-13.452927200922403,15.546538172257259,-1.074993641999998,0.993249465139549
43742.0,-0.1992,-0.0519,0.8938,-95.57085366666666,-30.76629266666667,-12.814974666666666,-14.230625721122546,15.114656195316003,-1.1454760026666646,0.9171982828156625
43753.0,-0.1875,-0.0781,0.7988,-98.72355366666666,-31.76629266666667,-4.494374666666667,-15.0342166040073,14.684941312485126,-1.1701950633333313,0.8242192062794945
43764.0,-0.2113,-0.1362,0.707,-104.12045366666666,-23.827392666666665,1.1468253333333334,-15.893896724482756,14.358168633262276,-1.163887523999998,0.7503646646797808
43775.0,-0.2589,-0.1927,0.6375,-108.90675366666666,-9.949592666666666,2.643025333333333,-16.8083060514701,14.203112147566015,-1.1493508846666647,0.7145409365459756
43786.0,-0.3099,-0.2598,0.6017,-107.62435366666666,5.607707333333334,-1.4714746666666665,-17.718459425564937,14.240895514559094,-1.1574439953333313,0.7249668544147381
43797.0,-0.3556,-0.3127,0.6102,-102.06705366666667,19.584807333333334,-10.982874666666666,-18.58344974714139,14.45504897181077,-1.217849805999998,0.7723837711914977
43808.0,-0.3584,-0.3486,0.6294,-94.79985366666666,32.439807333333334,-24.089774666666667,-19.388059365093124,14.82825712301683,-1.3503435666666648,0.8038139585749926
43819.0,-0.3492,-0.3268,0.6287,-90.20445366666667,46.623007333333334,-34.326374666666666,-20.157094756694057,15.36901972077439,-1.5391386273333314,0.7899383330361934
43830.0,-0.3357,-0.2379,0.6533,-84.59375366666667,36.96650733333333,-40.13557466666667,-20.86604921305075,15.81283959341499,-1.759884287999998,0.7720698090198839
43841.0,-0.277,-0.2686,0.6162,-70.93725366666666,21.081007333333336,-46.25007466666667,-21.433578943328396,16.087178074411224,-2.014259698666665,0.7270332867207663
43852.0,-0.2053,-0.251,0.4404,-53.822753666666664,17.149707333333332,-48.22717466666667,-21.82693331660514,16.321948864790027,-2.2795091593333314,0.5469014993579739
43863.0,-0.106,-0.3217,0.2841,-39.715953666666664,69.22600733333333,-44.44857466666667,-22.09768159432308,17.114929724364835,-2.5239763199999983,0.4420856251904149
43874.0,-0.2047,-0.4114,0.5432,-28.051753666666666,105.95880733333333,-38.59357466666667,-22.276360304704315,18.291189695907665,-2.7362409806666648,0.7114901896723524
43885.0,-0.2616,-0.4235,0.6855,-16.41825366666667,105.11150733333334,-32.07447466666667,-22.356881271140143,19.43894572671844,-2.9126505913333314,0.8471700301592355
43896.0,-0.3135,-0.3878,0.8666,-8.349453666666667,87.89010733333333,-24.387474666666666,-22.362389284134114,20.38022212337216,-3.046781701999998,0.9998333111074066
43907.0,-0.3317,-0.3544,0.976,-5.860953666666667,57.08100733333333,-17.776774666666665,-22.343198897518292,20.96959932166624,-3.1445539626666643,1.0900459852685114
43918.0,-0.3326,-0.3334,1.0129,-8.502153666666667,23.279507333333335,-13.166074666666667,-22.3505602063884,21.180420917385913,-3.216967373333331,1.117024946006131
43929.0,-0.3412,-0.3105,0.9813,-11.303653666666667,-11.468592666666666,-10.364574666666666,-22.384275803493882,21.01296611780367,-3.2739725339999977,1.0843326887998903
43940.0,-0.3428,-0.3278,0.886,-10.746453666666667,-41.01059266666667,-8.448574666666666,-22.41381458112102,20.535274564184796,-3.320439694666664,1.0049679994905312
43951.0,-0.3193,-0.3242,0.7239,-6.784653666666667,-57.12509266666667,-5.677574666666667,-22.408302730872762,19.902050307585654,-3.3516663553333306,0.8550376249031384
43962.0,-0.3243,-0.4362,0.793,6.9863463333333335,-69.57549266666668,-9.318774666666666,-22.27279368163506,19.152538839934834,-3.402919615999997,0.9613999843977532
43973.0,-0.2721,-0.4211,0.9485,20.314646333333332,-81.49149266666667,-10.089774666666667,-22.005173592510477,18.280503690411834,-3.458413376666664,1.072854076750422
43984.0,-0.2365,-0.3376,1.0194,26.566546333333335,-106.20149266666667,-4.395074666666666,-21.671095311366386,17.144177711856678,-3.4825862873333304,1.0995828163444534
43995.0,-0.2296,-0.2911,1.2098,22.994046333333333,-131.28539266666667,8.276625333333334,-21.36596453686257,15.738627912627132,-3.4370648479999972,1.2653345051803495
44006.0,-0.2416,-0.2599,1.2476,15.016946333333333,-168.29309266666667,21.948425333333333,-21.134270455491034,13.944304251762908,-3.316348508666664,1.2970830081378755
44017.0,-0.2729,-0.2858,1.1702,3.856646333333333,-201.16329266666665,32.574325333333334,-21.016653069178503,11.822585268798187,-3.1371897193333305,1.2351210831331476
44028.0,-0.3136,-0.366,1.032,-6.578553666666667,-224.85789266666666,35.41402533333333,-21.01701225661276,9.48923270019506,-2.9424125799999974,1.139001738365662
44039.0,-0.3159,-0.4193,0.9188,-12.700653666666668,-236.47629266666667,30.345325333333335,-21.09540651443294,7.0825029159796715,-2.775513290666664,1.058205433741483
44050.0,-0.2485,-0.4382,0.851,-16.853353666666667,-237.10219266666667,20.123925333333332,-21.232798690989203,4.716547453111546,-2.664831701333331,0.9889249162600768
44061.0,-0.1383,-0.4302,0.8031,-18.998353666666667,-230.48389266666666,8.910225333333333,-21.406979828850094,2.457638217694289,-2.6158254619999974,0.9215034129074076
44072.0,-0.0076,-0.3989,0.7576,-19.051753666666666,-217.42279266666665,0.9942253333333333,-21.593080494511632,0.35990472457547956,-2.6103572226666643,0.8562340392673022
44083.0,0.0964,-0.387,0.7213,-18.044153666666666,-201.13279266666666,-3.2195746666666665,-21.779471895593325,-1.5553144799358696,-2.628064883333331,0.8242182053315736
44094.0,0.1824,-0.3816,0.6925,-15.647253666666668,-183.46859266666667,-4.440874666666666,-21.951348248443807,-3.2852969706936994,-2.6524896939999976,0.8114459747882172
44105.0,0.2455,-0.3671,0.6716,-11.357153666666667,-167.67469266666666,-2.4561746666666666,-22.08696900777398,-4.85976107934948,-2.665998654666664,0.8037905324150068
44116.0,0.2992,-0.35,0.6508,-6.227353666666667,-153.73579266666667,1.9636253333333333,-22.175854610326915,-6.306498032768016,-2.6551987153333307,0.7972209731310386
44127.0,0.229,-0.2916,0.6597,-1.2655536666666671,-148.78919266666665,4.574325333333333,-22.211622945291886,-7.712434040809437,-2.6300399259999976,0.7567533614064756
44138.0,0.2859,-0.3533,0.6667,8.001646333333333,-145.37699266666667,2.757525333333333,-22.155484154387317,-9.10066285674572,-2.6148735366666642,0.8068758206812248
44149.0,0.302,-0.3933,0.6838,16.841346333333334,-147.63659266666664,0.7575253333333334,-22.016528311890802,-10.531816587831257,-2.610707147333331,0.8446723210807845
44160.0,0.2817,-0.4581,0.7175,26.230646333333333,-155.85029266666666,-1.5248746666666668,-21.794939389824126,-12.06239677383547,-2.6190939579999974,0.8966698110229874
44171.0,0.3278,-0.4137,0.6602,36.520746333333335,-158.56019266666667,1.0552253333333335,-21.478357180693784,-13.635160582347977,-2.613290218666664,0.845260060573076
44182.0,0.3774,-0.4004,0.6268,49.91764633333333,-155.94189266666666,8.803325333333333,-21.033586239322762,-15.196427746953578,-2.564871929333331,0.8340438597579867
44193.0,0.4498,-0.3927,0.4425,72.60464633333333,-143.09459266666664,20.826225333333333,-20.37102242899153,-16.648490509744853,-2.4503276899999977,0.7431955193621662
44204.0,0.5007,-0.3741,0.3876,101.40624633333333,-111.00299266666667,34.78042533333333,-19.427283472239626,-17.793593184787472,-2.2590353506666645,0.7354488833358849
44215.0,0.4899,-0.3005,0.5259,121.24594633333334,-84.01829266666667,46.14682533333333,-18.28388741080133,-18.681674640726737,-2.0052278113333313,0.7790205838102098
44226.0,0.4869,-0.2032,0.6252,131.22304633333334,-67.56789266666667,57.25372533333333,-17.03174373655876,-19.420782520165172,-1.690332321999998,0.818069000757271
44237.0,0.5123,-0.1934,0.6591,134.39094633333335,-52.46859266666667,72.20792533333334,-15.744243295688994,-20.025122924882574,-1.2931887326666647,0.856894194168685
44248.0,0.489,-0.173,0.6605,131.26114633333333,-32.97249266666667,86.35302533333333,-14.489961771417013,-20.44127492746387,-0.8182470933333313,0.8398275120523261
44259.0,0.4576,-0.1659,0.6691,129.07034633333333,-10.995392666666666,93.69652533333333,-13.259832592346736,-20.637133642297147,-0.3029162039999981,0.8274148777971061
44442.0,0.155,0.0349,0.8485,74.29934633333333,61.37870733333333,75.65072533333333,-0.06933175932146679,-9.670725676725034,6.6191251640000015,0.8632469287521387
44453.0,0.1611,0.0729,0.838,80.66574633333333,71.06570733333334,78.24612533333332,0.45374657851907335,-9.138541066733353,7.049478853333334,0.8564529292377954
44464.0,0.1621,0.0637,0.8788,84.05504633333334,78.31760733333333,81.87202533333333,1.0498120124707966,-8.51343337768509,7.4997749926666675,0.8958925940089024
44475.0,0.12,0.1069,0.9377,83.67344633333333,80.62300733333333,84.83392533333333,1.6790950935660762,-7.845185819874182,7.966361582000001,0.9513721143695563
44486.0,0.098,0.0511,0.9681,82.46724633333334,79.85200733333333,86.54382533333333,2.319136620325671,-7.167671398850936,8.442352621333335,0.9743884338394005
44497.0,0.0233,0.0693,1.0244,79.97874633333333,74.88250733333334,86.84152533333334,2.954665934941048,-6.5183365444512065,8.919981010666667,1.0270057156608234
44508.0,-0.0397,0.0538,1.0309,76.33754633333334,66.11910733333333,82.49042533333333,3.5666167456263205,-5.93436347428638,9.37367835,1.0330659901477737
44519.0,-0.0784,-0.021,1.0173,73.00164633333333,58.93590733333333,73.78042533333333,4.1449304299952,-5.398365133375734,9.779470689333333,1.0205326305415228
44530.0,-0.1025,-0.0536,0.9447,68.67344633333333,57.98940733333333,60.37592533333333,4.672465917501517,-4.845842580359988,10.111538278666666,0.9517548528901757
44541.0,-0.1173,-0.0594,0.8843,66.03984633333333,65.16500733333334,43.79572533333333,5.166134161855427,-4.192896504386012,10.352414768,0.8940213308417199
44552.0,-0.1083,-0.0735,0.8126,65.03984633333333,79.21080733333334,23.421725333333335,5.6409359256340945,-3.373121619636717,10.481234257333332,0.8230734475124319
44563.0,-0.1227,-0.0688,0.7515,63.94824633333333,101.65350733333334,2.0705253333333333,6.095913574084009,-2.3005563769846646,10.492622146666665,0.7645527973920441
44574.0,-0.1432,-0.0183,0.7368,62.71154633333333,130.18790733333336,-18.234774666666667,6.53654745270355,-0.9139762878623772,10.392330885999998,0.7508098094724123
44585.0,-0.1587,0.0199,0.7698,59.71924633333333,159.72220733333336,-34.63937466666667,6.949356690453856,0.7912860409228462,10.20181432533333,0.7862402559014643
44596.0,-0.1802,0.0328,0.8425,53.59704633333333,183.64590733333335,-47.96767466666667,7.302643155231727,2.749014213545266,9.937992114666663,0.8621798710246024
44607.0,-0.214,0.0409,0.9171,47.69634633333333,196.63060733333336,-60.07447466666667,7.60027988761176,4.837722737927778,9.607582503999996,0.9426246442778802
44618.0,-0.2876,0.0348,1.0469,44.87954633333333,194.04280733333334,-71.05927466666667,7.874953505923271,6.8923902119014455,9.21675649333333,1.0862432554451142
44629.0,-0.3468,0.0316,1.1465,47.497846333333335,159.22600733333334,-82.54017466666667,8.183960782503936,8.567737459644277,8.762785532666664,1.1982199505933793
44640.0,-0.3678,0.0377,1.1117,47.71154633333333,129.86720733333334,-92.68517466666667,8.49952957835414,9.9273881961224,8.253017071999997,1.1715694687042677
44651.0,-0.4014,0.0323,1.0645,46.658146333333335,102.29470733333333,-105.40277466666667,8.805575423256254,10.996752265264098,7.67330181133333,1.1381236751777022
44662.0,-0.4315,0.03,1.0272,44.27644633333333,83.69170733333333,-119.80727466666667,9.086539036094795,11.87804076432435,7.014361800666663,1.1145546599427054
44673.0,-0.4514,0.049,0.9736,40.06274633333334,72.47030733333332,-137.20427466666666,9.32453682941639,12.653879307799945,6.259738289999996,1.0742718091805257
44684.0,-0.4679,0.0847,0.9318,33.87184633333333,70.21080733333334,-154.53247466666664,9.502411868731093,13.42213684168402,5.409809679333329,1.0461145921934174
44695.0,-0.478,0.1334,0.9333,26.245946333333332,72.48560733333333,-168.08977466666664,9.610408448243083,14.229393502566504,4.485315918666663,1.0570375821133324
44706.0,-0.4767,0.1749,0.9696,14.994046333333333,74.18790733333333,-176.55537466666667,9.613820925542887,15.0640592954048,3.514261357999996,1.0945122475331193
45055.0,-0.1997,-0.0065,1.0815,-6.204453666666667,-14.346492666666666,-96.99057466666667,7.328965146140478,10.163248215188352,-13.410593921333337,1.0998020685559742
45066.0,-0.1154,0.0265,1.0804,-15.624353666666668,-27.758692666666665,-82.45617466666667,7.04329430393871,9.947892015314896,-13.864102882000005,1.0868686995217038
45077.0,-0.0471,0.0474,1.0917,-23.410553666666665,-39.98009266666667,-61.71567466666667,6.681676245701932,9.579416667643173,-14.203539092666672,1.0937431416927832
45088.0,0.0049,0.0505,1.1183,-28.280753666666666,-52.64419266666667,-33.49437466666667,6.277092971757004,9.052638742312325,-14.387758153333339,1.1194503785340377
45099.0,0.0537,0.0442,1.131,-30.067053666666666,-67.76629266666667,1.4293253333333333,5.862645370003883,8.341943098259788,-14.379896864000006,1.133136501044777
45110.0,0.085,0.061,1.1637,-30.670153666666668,-87.17859266666667,41.52852533333333,5.452877695075362,7.404402043996917,-14.151489974666672,1.1683936365797272
45121.0,0.0914,0.0935,1.165,-30.593753666666668,-111.27019266666667,85.00942533333333,5.058212137875584,6.1971824095732995,-13.683938135333339,1.172314467197262
45132.0,0.0444,0.115,1.1191,-26.776953666666667,-138.14799266666665,127.77282533333333,4.720457637889494,4.704639524229666,-12.981187596000005,1.1258690732052283
45143.0,-0.0133,0.0485,1.0294,-18.952553666666667,-164.40759266666666,165.34532533333334,4.47400959071524,2.9484866888380044,-12.071788306666672,1.0306277213426778
45154.0,-0.0713,-0.0201,0.9338,-8.311353666666667,-187.43809266666665,196.92552533333335,4.340269670035329,0.9771172239918838,-10.988697917333338,0.9367337615352613
45165.0,-0.0896,-0.0585,0.8649,1.352746333333333,-201.14799266666665,218.34532533333334,4.302957910792814,-1.1017560031080977,-9.787798628000004,0.8714943602800881
45176.0,-0.0962,-0.0498,0.8219,10.711546333333333,-207.98009266666665,235.02472533333335,4.358697151807089,-3.21067836983334,-8.49516263866667,0.8290078950166879
45187.0,-0.0969,-0.0198,0.8076,21.184846333333333,-211.09459266666664,248.23082533333334,4.521734700412449,-5.308862206872283,-7.129893099333337,0.8136334617012749
45198.0,-0.0745,0.0951,0.7771,30.986346333333334,-206.70529266666665,250.81102533333333,4.796723376950189,-7.31806429753096,-5.750432460000004,0.7864341485464629
45209.0,-0.0475,0.0771,0.8744,40.99404633333333,-205.65949266666667,250.81102533333333,5.18047641896983,-9.2804663427683,-4.3709718206666714,0.8790767998303675
45220.0,-0.032,0.1119,0.8872,53.01694633333333,-208.98769266666665,250.81102533333333,5.696156193229061,-11.245772763737822,-2.991511181333338,0.8948013466686335
45231.0,-0.0529,0.1667,0.853,62.59704633333333,-213.01059266666667,250.81102533333333,6.320781658001729,-13.217965938654395,-1.6120505420000049,0.8707446812929723
45242.0,-0.0789,0.1809,0.8127,69.25354633333333,-211.94189266666666,250.81102533333333,7.021378557415567,-15.138157119357901,-0.23258990266667157,0.8363201002008741
45253.0,-0.0953,0.1399,0.8062,76.81844633333333,-206.40759266666666,250.81102533333333,7.799841686454589,-16.957207146722862,1.1468707366666617,0.823779424360672
45264.0,-0.1429,0.1088,0.782,84.93294633333333,-195.29309266666667,250.81102533333333,8.656007260166765,-18.610917807815717,2.526331375999995,0.8023601747345142
45275.0,-0.183,0.0833,0.8478,91.03984633333333,-178.84269266666666,250.81102533333333,9.562207037207445,-20.041569676452703,3.9057920153333283,0.8713166645944516
45286.0,-0.1881,0.0603,0.8524,95.43674633333333,-160.50679266666666,250.81102533333333,10.495892084070158,-21.233890476792308,5.285252654666662,0.8749876913419983
45297.0,-0.2018,0.0529,0.9348,94.98634633333333,-137.47629266666667,250.81102533333333,11.402610851261406,-22.142799849268176,6.664713293999995,0.9577957454488926
45308.0,-0.1879,0.0306,0.9994,85.86424633333333,-112.17859266666667,250.81102533333333,12.186401150775874,-22.753628006201232,8.044173933333328,1.017370694486528
45319.0,-0.1591,-0.0187,0.9879,67.77264633333333,-80.48389266666668,228.67362533333335,12.747834188100137,-23.00759632594574,9.301878872666661,1.0008041316861158
45330.0,-0.1256,-0.0607,0.929,43.06274633333334,-38.97249266666667,194.07052533333334,13.016589543199341,-22.809458038423607,10.369266761999995,0.9394151638120389
45341.0,-0.1237,-0.1024,0.9408,24.48254633333333,-4.667092666666667,164.75752533333335,13.06092077832051,-22.246321565967147,11.275433151333328,0.9544066690881828
45352.0,-0.1184,-0.092,0.9719,17.52074633333333,16.981707333333333,137.60492533333334,13.013713132779205,-21.463003751978995,12.03226024066666,0.983398276386531
45363.0,-0.0623,-0.0361,0.9349,16.429146333333332,32.180207333333335,116.87972533333333,12.94871645396254,-20.53946499584457,12.675098729999995,0.937668656829266
45374.0,0.0182,0.0099,0.9169,14.871846333333334,46.76800733333333,104.92552533333333,12.867676943670219,-19.493878718780486,13.252189119333329,0.9171340469091747
45385.0,0.0533,0.0531,0.902,15.299346333333332,56.55430733333333,98.96362533333333,12.79774580265372,-18.382981070439843,13.796489058666662,0.9051323107700885
45396.0,0.0659,0.0535,0.7952,19.161946333333333,63.01230733333333,95.58202533333333,12.775637449382094,-17.24263907373797,14.322190197999996,0.7997175126255521
45407.0,0.0688,0.0778,0.7035,28.54364633333333,70.79850733333333,94.97132533333333,12.862985386895302,-16.057380468162535,14.844532487333328,0.7111248343293883
45418.0,-0.005,0.1353,0.676,43.76504633333333,76.97410733333334,94.35302533333333,13.127776640981615,-14.83460223518109,15.363474126666661,0.6894251881096309
45429.0,-0.0779,0.1415,0.6588,61.25354633333333,82.42450733333332,90.67362533333333,13.590958690888952,-13.572593978426474,15.862179065999994,0.6783126860084515
45440.0,-0.1414,0.1133,0.6624,77.97114633333334,94.51610733333332,82.87972533333333,14.23540260729431,-12.192121600511861,16.318017555333327,0.6867347450071243
45451.0,-0.2196,0.1049,0.7534,94.43674633333333,109.56950733333333,71.78042533333333,15.051923484817651,-10.654767339275736,16.71280989466666,0.7917321074707024
45462.0,-0.296,0.0819,0.8909,102.07794633333333,126.11910733333333,56.53622533333333,15.936553606295135,-8.941237376379583,17.02375913399999,0.9423515373787004
45473.0,-0.3629,-0.0076,1.027,96.50544633333334,140.81380733333336,36.51332533333333,16.731819914971098,-7.072235159857224,17.224582423333324,1.089258082366158
45484.0,-0.4304,-0.1132,1.1237,82.36804633333334,152.01230733333335,10.940725333333333,17.33447288639756,-5.086718471168808,17.284756412666656,1.208619083913538
45495.0,-0.4817,-0.2007,1.1544,68.37564633333334,155.53140733333333,-19.914174666666668,17.742774804903235,-3.0696617635698407,17.17522845199999,1.2668680831088928
45506.0,-0.5076,-0.2157,1.0765,60.16954633333334,152.15730733333334,-58.15087466666667,18.026140143087055,-1.0961428328104885,16.85539864133332,1.2095604573563077
45517.0,-0.5144,-0.1781,0.8577,58.90244633333333,153.92070733333335,-93.97527466666666,18.269707561946134,0.8929971977967934,16.338534630666654,1.015862323348986
45528.0,-0.5369,-0.1272,0.7207,64.84134633333333,166.43210733333333,-128.38747466666666,18.55966647735341,3.0171215055875065,15.632403519999988,0.9076617982486649
45539.0,-0.6029,-0.095,0.7014,79.42914633333334,185.28710733333335,-160.78447466666665,18.99340647121462,5.347123234090564,14.74808890933332,0.9297716762732666
45550.0,-0.6707,-0.0243,0.882,96.94054633333333,197.25660733333333,-190.60117466666665,19.610070870175726,7.800302673892934,13.699782448666655,1.1083108679427447
45561.0,-0.6956,-0.0093,1.1112,106.03984633333333,192.40160733333335,-216.60117466666665,20.31780791235896,10.179723128890343,12.508475987999988,1.3109962967148305
45572.0,-0.6838,0.0002,1.2434,101.43674633333333,173.69930733333334,-239.82257466666667,20.96776022783651,12.325875964160053,11.189451827333322,1.4190229173625069
45583.0,-0.6547,0.0751,1.2413,85.44434633333333,150.95880733333334,-249.45617466666667,21.445350402445698,14.194410654487635,9.817442866666655,1.4053817239454909
45594.0,-0.6136,0.1447,1.1357,64.16954633333333,134.62300733333333,-249.45617466666667,21.702243360789325,15.859001826864262,8.445433905999987,1.2989447794267468
45605.0,-0.5771,0.2063,1.0354,45.02454633333333,127.10390733333332,-249.45617466666667,21.76990689451686,17.418510873153565,7.073424945333321,1.2031862948022638
45616.0,-0.5548,0.2798,0.9678,28.146646333333333,126.43980733333333,-249.45617466666667,21.681897577324808,18.948835102035776,5.701415984666655,1.150099091382999
45627.0,-0.5482,0.3273,0.9598,14.047446333333333,126.48560733333333,-249.45617466666667,21.47340157226821,20.457014556889376,4.3294070239999884,1.1527638830220177
45638.0,-0.5227,0.3494,0.9814,1.467246333333333,124.05810733333333,-249.45617466666667,21.16231900268535,21.912629272409955,2.957398063333322,1.165522033253769
45649.0,-0.5244,0.348,1.0215,-12.128153666666666,114.88250733333334,-249.45617466666667,20.736120077384456,23.24189421800441,1.5853891026666556,1.1998173235955547
45660.0,-0.5024,0.3047,1.0251,-27.54795366666667,101.29470733333333,-249.45617466666667,20.170288645507963,24.39738541355839,0.213380141999989,1.1815573875186935
45671.0,-0.4884,0.2642,0.9401,-41.98305366666667,87.69170733333333,-249.45617466666667,19.473315877908085,25.385116328418434,-1.1586288186666776,1.0918444074134372
45682.0,-0.484,0.2119,0.8743,-51.067053666666666,81.51610733333332,-249.45617466666667,18.699815466538894,26.291007680165485,-2.530637779333344,1.0215469152222036
45693.0,-0.47,0.1926,0.8132,-54.21205366666667,79.76800733333333,-249.45617466666667,17.913655695745966,27.16566915387433,-3.9026467400000104,0.9587955986548958
45704.0,-0.46,0.2014,0.7717,-52.07465366666667,80.36340733333333,-247.31117466666666,17.173202577726208,28.035655167746647,-5.2628582006666775,0.9206969371079715
45715.0,-0.4475,0.1709,0.7599,-47.685353666666664,78.98940733333333,-234.25767466666665,16.49832051875538,28.878760158249953,-6.551275411333344,0.898282288593068
45726.0,-0.4354,0.1195,0.7644,-45.693053666666664,73.27180733333333,-221.36457466666667,15.856031758275826,29.64688949127294,-7.7687805720000105,0.8877841911185398
45737.0,-0.406,0.0656,0.7645,-46.23495366666667,62.577207333333334,-209.38747466666666,15.212788549691961,30.284676784381332,-8.920411682666677,0.8681011519402563
45748.0,-0.3894,-0.0035,0.7908,-49.38005366666667,49.05040733333333,-197.75387466666666,14.533057801341744,30.761071968088487,-10.008057993333344,0.8814812817071046
45759.0,-0.3917,-0.0553,0.8632,-58.525053666666665,33.93590733333333,-187.37987466666667,13.747206616601776,31.058770602117587,-11.03864730400001,0.9495268400629863
45770.0,-0.4185,-0.0994,0.9299,-72.02885366666666,16.386307333333335,-176.61647466666665,12.806347868386627,31.15491813754613,-12.010037914666677,1.0245665522551475
45781.0,-0.462,-0.0999,0.9701,-85.09755366666667,-3.499192666666666,-164.38747466666666,11.720271531324588,31.031411730568433,-12.914169025333344,1.0791283612249287
45792.0,-0.4904,-0.1191,1.0039,-94.77695366666667,-26.109892666666667,-150.42567466666665,10.528542710597106,30.66480029518031,-13.74151023600001,1.1236067728524957
45803.0,-0.4801,-0.174,1.0292,-101.09755366666667,-52.90369266666667,-139.88367466666665,9.26598102554776,30.012771724036384,-14.510870446666678,1.1489232567930723
45814.0,-0.4288,-0.2098,1.0421,-101.47925366666666,-84.17859266666667,-133.59357466666665,7.997230850419336,29.027476234397827,-15.245635107333344,1.1462364023184748
45825.0,-0.3433,-0.2115,0.991,-95.63955366666667,-114.50679266666667,-126.02107466666666,6.792350670473652,27.720780366845577,-15.93875101800001,1.0698916487196262
45836.0,-0.2595,-0.1898,0.8794,-84.26555366666666,-138.43049266666665,-112.33407466666667,5.71416061908681,26.166301888500513,-16.55658842866668,0.9363272131044788
45847.0,-0.1899,-0.2161,0.8171,-69.53275366666666,-159.48389266666666,-90.60117466666667,4.794484813028149,24.3968018046386,-17.054894889333344,0.8662641802591171
45858.0,-0.1516,-0.2911,0.7832,-54.296053666666666,-181.16329266666665,-64.95237466666667,4.027992295456784,22.40849424379643,-17.41213295000001,0.8491902083750142
46053.0,0.3654,0.1046,0.879,208.31464633333334,-67.75109266666666,200.50562533333334,43.68981389819933,9.384283417145218,2.1371655199999893,0.9576530269361655
46064.0,0.2925,0.1464,0.9802,181.78024633333334,-34.10989266666667,198.66592533333335,44.73285312000281,9.12837343462528,3.2298281093333223,1.0333350134394943
46075.0,0.251,0.1238,1.0581,149.95584633333334,-7.728192666666667,191.19262533333335,45.43135389159082,9.099400718853795,4.281387548666656,1.0944875741642752
46086.0,0.2433,0.0803,1.0547,116.82604633333334,15.653507333333334,181.57432533333335,45.77087223545821,9.26820178865717,5.280046337999989,1.0853732399502025
46097.0,0.2384,0.0165,1.0388,89.67344633333333,35.18790733333333,172.62782533333333,45.81404880451398,9.596209201373538,6.2294993773333225,1.0659325729144409
46108.0,0.2335,-0.0186,0.9943,71.70394633333333,50.49320733333333,165.72702533333336,45.661238460274205,10.040922416343761,7.140998016666656,1.02151882018884
46119.0,0.2069,-0.0201,0.9391,62.474946333333335,59.60770733333333,158.90262533333333,45.410498756698686,10.541090507357037,8.014962455999989,0.96183180962162
46130.0,0.1384,0.0219,0.8792,60.65054633333333,68.23370733333333,153.52092533333334,45.14877924887668,11.102039490302861,8.859327545333322,0.890295911481121
46141.0,0.0815,0.0378,0.8568,63.68864633333333,77.32530733333333,151.21552533333335,44.93034330388228,11.736483675370918,9.691012934666656,0.8614971445106477
46152.0,0.0295,0.0409,0.8383,68.57414633333333,86.87490733333333,146.68882533333334,44.77418738327552,12.455457837413658,10.497801473999989,0.8398154261502941
46163.0,-0.0093,-0.0115,0.8446,72.85664633333333,96.37870733333332,139.01712533333335,44.66558738435633,13.262082384139134,11.262395663333322,0.8447294833258752
46174.0,-0.0146,-0.0729,0.8032,77.30694633333333,107.52370733333333,128.87972533333334,44.597783724340346,14.17307709182188,11.971234152666655,0.8066336281113007
46185.0,-0.0626,-0.1398,0.7861,82.31464633333333,118.74510733333334,114.10102533333333,44.56810200270967,15.193333082227651,12.59878979199999,0.8008845172682514
46196.0,-0.1174,-0.1345,0.756,88.24594633333334,132.08860733333336,97.94072533333333,44.58762822037556,16.35026859423323,13.137463781333322,0.7767940589371163
46207.0,-0.208,-0.1077,0.7335,96.07794633333333,149.06570733333334,77.88732533333334,44.680432049605606,17.69144082884074,13.565844070666655,0.7699906103323598
46218.0,-0.3143,-0.0636,0.7137,102.79554633333333,172.42450733333334,54.719425333333334,44.839668379158006,19.29461904217088,13.866800909999988,0.7824302780439929
46229.0,-0.427,-0.0277,0.6896,107.87184633333334,199.43210733333333,29.711725333333334,45.05147907125846,21.206788085296008,14.03021539933332,0.811569128294072
46240.0,-0.5234,-0.0466,0.6099,110.69634633333334,234.92070733333335,2.6736253333333333,45.28753701457192,23.52442994302827,14.044920338666653,0.8050447999956276
46251.0,-0.6208,-0.0588,0.5615,114.27644633333334,251.71460733333333,-26.692774666666665,45.55389272214903,26.04863344546463,13.898110077999986,0.8391259321460635
46262.0,-0.7083,-0.056,0.5194,122.38334633333334,251.71460733333333,-56.77677466666667,45.89950285909199,28.602799302752445,13.585837817333319,0.8801143391628159
46273.0,-0.8074,-0.0369,0.5433,134.18484633333333,251.71460733333333,-85.75387466666668,46.366319262887295,31.19189574753208,13.114191506666652,0.9738743553456986
46284.0,-0.9292,-0.0283,0.7365,148.07794633333333,251.71460733333333,-113.61647466666668,46.97752883584893,33.809732337239176,12.489300895999985,1.186020986323598
46295.0,-1.006,0.035,0.9926,157.36044633333333,251.71460733333333,-138.20427466666666,47.69001715833444,36.43530267473112,11.729177385333319,1.4136887068941308
46306.0,-1.0417,0.1174,1.2815,157.16954633333333,251.71460733333333,-157.36457466666667,48.40790398189382,39.04182726324305,10.863672224666653,1.6556460672498818
46317.0,-0.7666,0.2914,1.9999,69.56654633333333,115.96650733333333,-165.76917466666666,48.202794481886706,40.092510255591364,9.951941763999987,2.161524815957476
46328.0,-0.9364,0.0983,1.3033,24.910046333333334,182.79090733333334,-175.86837466666665,47.528567323206595,41.86147463722891,8.98466570333332,1.6078242254674482
46670.0,0.0348,-0.3638,0.3107,87.03214633333333,-248.55259266666667,12.375925333333333,75.72817051493548,-41.70087015751029,11.10094893533332,0.4796831975377082
46681.0,0.1416,-0.3315,0.3309,102.60464633333333,-248.55259266666667,26.383525333333335,75.26083630145419,-43.000641578142066,11.246058324666654,0.4893236352354135
46692.0,0.262,-0.3131,0.3483,120.94824633333333,-248.55259266666667,48.46752533333333,74.96124658391159,-44.32566341068855,11.512629713999987,0.5366456000005962
46703.0,0.3466,-0.2797,0.4139,140.74974633333332,-212.72049266666664,73.23082533333333,74.84511337475331,-45.306580546991405,11.91539925333332,0.6080105755659189
46714.0,0.397,-0.2161,0.4998,158.36044633333333,-187.19379266666667,91.96362533333333,74.8953069211019,-46.0751016139529,12.421199192666652,0.6738755448894106
46725.0,0.4082,-0.1422,0.5872,172.66574633333335,-169.36179266666664,108.97892533333334,75.08694664624991,-46.723709222030955,13.020583281999986,0.7291446495723602
46736.0,0.3843,-0.0693,0.6902,181.69634633333334,-155.94949266666666,125.41402533333333,75.37557729083947,-47.2983272447206,13.71036042133332,0.7930101008183944
46747.0,0.3512,-0.054,0.7809,183.26884633333333,-145.56019266666667,140.45982533333336,75.68385089839462,-47.822855240091684,14.482889460666653,0.8579407030791814
46758.0,0.3228,-0.0643,0.8997,174.64284633333332,-135.23199266666666,152.62012533333333,75.90196131613746,-48.28732984371594,15.322300149999986,0.9580158766951622
46769.0,0.274,-0.1318,1.0159,157.23824633333334,-125.24729266666667,158.38352533333335,75.92842503074336,-48.68065120086612,16.19340953933332,1.0604244668999296
46780.0,0.2461,-0.1508,1.1162,136.10854633333332,-117.23199266666667,156.05522533333334,75.72621430084065,-49.01358556431094,17.051713278666654,1.1529129585532467
46791.0,0.2471,-0.1201,1.1621,111.39854633333333,-110.99539266666667,149.16982533333334,75.26640290730845,-49.3003999183392,17.872147317999985,1.1941351807898466
46802.0,0.2422,-0.067,1.1761,83.45964633333334,-105.36939266666667,142.58202533333335,74.52565651856655,-49.543010628700934,18.65634845733332,1.2026475169391901
46813.0,0.2299,-0.045,1.1311,54.98634633333333,-97.59839266666667,136.44462533333333,73.50417774980917,-49.71448812219472,19.406793896666652,1.1551044195223217
46824.0,0.229,-0.0458,0.9865,31.253546333333333,-83.96479266666667,130.39112533333335,72.25512868840504,-49.75229248380625,20.123945085999985,1.0137656977822835
46835.0,0.2338,-0.0908,0.8597,16.78794633333333,-63.941892666666675,125.94072533333333,70.87495014112372,-49.590797390429955,20.816619075333318,0.8955395971144995
46846.0,0.2438,-0.1332,0.7449,13.024546333333333,-41.11749266666667,121.23082533333333,69.47486132972143,-49.20546758847908,21.48338861466665,0.7950199305677814
46857.0,0.2476,-0.179,0.6141,17.51304633333333,-13.980092666666666,115.97892533333334,68.13692227650208,-48.556092360751606,22.121272703999985,0.6859049278143436
46868.0,0.2433,-0.2241,0.537,27.963446333333334,17.22600733333333,108.71942533333333,66.91755137750496,-47.60434237083666,22.719229543333316,0.6307017520191299
46879.0,0.2048,-0.2621,0.4365,45.681046333333335,57.72980733333333,96.62782533333333,65.88604456864819,-46.25266640275186,23.25068258266665,0.5487911260215493
46890.0,0.1195,-0.2838,0.3583,70.06274633333334,105.24130733333332,81.67362533333333,65.1054892091909,-44.423091326206105,23.699887521999983,0.47244214460608824
46901.0,-0.0026,-0.2942,0.3677,99.46724633333334,157.52370733333333,61.26902533333333,64.62324922287232,-42.05443577855059,24.036867161333316,0.4709179227848522
46912.0,-0.1279,-0.2999,0.4642,124.97114633333334,206.86720733333334,34.83392533333333,64.39384351303777,-39.16588313181372,24.22845375066665,0.5672566085996708
46923.0,-0.2488,-0.3369,0.5928,141.33754633333334,249.90540733333336,2.337725333333333,64.31445526227928,-35.81371140220504,24.241311239999984,0.7258201498994086
46934.0,-0.3708,-0.3016,0.7067,147.36044633333333,251.71460733333333,-31.39507466666667,64.28432979320127,-32.43369654553059,24.068638329333318,0.8531588890704943
46945.0,-0.5002,-0.2344,0.8706,145.41384633333334,251.71460733333333,-62.74627466666667,64.23758906792196,-29.032818717178596,23.723533818666652,1.0310614724641787
46956.0,-0.5948,-0.1881,0.9446,138.22304633333334,251.71460733333333,-91.95237466666667,64.12923421458582,-25.611059830738927,23.217795757999987,1.132006099806887
46967.0,-0.6707,-0.1547,0.928,127.25354633333333,251.71460733333333,-120.30347466666667,63.92331497950215,-22.17215086508029,22.556126647333322,1.1554023455056683
46978.0,-0.7471,-0.0953,0.9156,117.31464633333333,251.71460733333333,-146.02867466666666,63.63954507300069,-18.71953688892166,21.752968936666655,1.1855647852395077
46989.0,-0.8258,-0.0508,1.0072,112.64284633333334,251.71460733333333,-166.10507466666667,63.34243794430771,-15.260905173583208,20.839391025999987,1.303448549042117
47000.0,-0.875,0.0111,1.1348,111.65814633333333,251.71460733333333,-181.32637466666665,63.07823547619573,-11.810441304419177,19.84209596533332,1.433010554741311
47011.0,-0.8772,0.0652,1.2308,108.22304633333333,251.71460733333333,-192.01347466666667,62.82107989434072,-8.384762706530427,18.786021854666654,1.5128117926563105
47022.0,-0.8575,0.0961,1.246,100.65054633333334,251.71460733333333,-198.78447466666665,62.522384621596835,-4.995152162898244,17.692707243999987,1.5156046516159813
47033.0,-0.8257,0.0795,1.1995,89.20014633333334,251.71460733333333,-204.05157466666665,62.132430617698546,-1.6478931903127965,16.57042358333332,1.458389862142493
47044.0,-0.7825,0.0852,1.1167,74.68104633333333,251.71460733333333,-209.73097466666667,61.61552523829377,1.653549953065566,15.416903222666653,1.3662299147654469
47055.0,-0.7412,0.1057,1.0281,57.76504633333333,251.71460733333333,-214.32637466666665,60.9468081699621,4.907608278120445,14.238108161999985,1.2718252788807116
47066.0,-0.7107,0.1406,0.981,43.11614633333333,243.18020733333336,-215.27297466666664,60.15461241079101,8.020476459400712,13.054106801333319,1.2195178760477436
47077.0,-0.6893,0.1532,1.045,28.345146333333332,231.64590733333335,-211.75387466666666,59.23901443000984,10.955566155213294,11.889460490666652,1.261201700760033
47088.0,-0.676,0.1239,1.0985,12.329846333333332,211.30240733333335,-206.12797466666666,58.183668925107746,13.616497631643163,10.755756629999986,1.2957736916607003
47099.0,-0.6569,0.1125,1.0739,-4.227353666666667,186.67640733333334,-199.09737466666667,56.98257923487919,15.961695332464462,9.66072106933332,1.263896779804427
47110.0,-0.636,0.0997,1.0107,-18.761753666666667,165.92830733333335,-190.42567466666665,55.65791455747043,18.040316265805664,8.613379858666654,1.1983115538122797
47121.0,-0.6421,0.0663,0.9435,-30.349453666666665,149.79850733333333,-182.73097466666667,54.239728432080234,19.9109874468471,7.608359497999988,1.143188676465963
47132.0,-0.6559,0.0105,0.9203,-40.135753666666666,136.11910733333335,-177.31117466666666,52.74328397630171,21.605924746995054,6.633148037333322,1.1301624440760718
47143.0,-0.6628,-0.049,0.9497,-48.670153666666664,118.15730733333334,-174.18897466666667,51.17776123753346,23.080638154499212,5.675108676666655,1.1591526776055
47154.0,-0.6581,-0.069,0.979,-59.685353666666664,93.92830733333334,-170.81497466666664,49.51650154449463,24.26928938927249,4.735626315999989,1.181650375534151
47165.0,-0.6456,-0.076,0.9742,-73.34185366666667,64.31000733333333,-165.65467466666666,47.73311683569914,25.11822052016492,3.824525605333322,1.1711707817393668
47176.0,-0.6206,-0.0436,0.9135,-88.06705366666667,33.60770733333333,-158.10507466666667,45.8225430595998,25.623315553842588,2.9549476946666555,1.1052273838446096
47187.0,-0.6111,-0.0605,0.8883,-104.10525366666667,4.615307333333334,-147.54017466666664,43.77183059419912,25.81005545411678,2.143476733999989,1.0798983053973183
47198.0,-0.6288,-0.0896,0.8502,-116.03655366666666,-24.315992666666666,-136.34167466666665,41.62556507014362,25.688672357834477,1.3935975233333224,1.0612528633648062
47209.0,-0.6301,-0.108,0.8682,-121.42585366666667,-58.48389266666667,-125.82257466666667,39.455041126799664,25.207334436874643,0.7015733626666558,1.078174962610429
47220.0,-0.6543,-0.0905,0.9054,-125.08995366666667,-100.93429266666666,-115.18897466666667,37.28209746931563,24.283386682940407,0.06803400199998921,1.1207354281899007
47231.0,-0.6541,-0.09,0.8718,-126.41055366666667,-155.15569266666665,-100.21957466666667,35.13261967628579,22.800146088249328,-0.4831736586666775,1.093609642422743
47242.0,-0.6455,-0.1266,0.7805,-122.58615366666666,-203.60599266666665,-84.60887466666667,33.05804126009007,20.83491772668701,-0.948522469333344,1.0207242820664157
47253.0,-0.6006,-0.1366,0.6024,-112.43345366666667,-245.24729266666665,-68.34927466666667,31.12387204159608,18.476710798169645,-1.3244434800000107,0.8615484199973905
47264.0,-0.6415,-0.3467,0.6182,-95.55565366666667,-248.55259266666667,-52.76147466666667,29.37810563051467,16.148290452473017,-1.6146315906666773,0.9559782319697452
47275.0,-0.611,-0.3688,0.4551,-72.86855366666667,-248.55259266666667,-40.00577466666667,27.87769357110852,13.891665049205852,-1.834663351333344,0.8464339608026133
47286.0,-0.5924,-0.515,0.5095,-48.547953666666665,-248.55259266666667,-27.349274666666666,26.621224789986254,11.698765227038484,-1.9850843620000105,0.935816760909955
47297.0,-0.5419,-0.4839,0.4489,-22.815153666666667,-248.55259266666667,-16.776774666666665,25.624056231296414,9.56719282208649,-2.0773566226666773,0.8540058723451497
47308.0,-0.472,-0.4681,0.417,5.9863463333333335,-248.55259266666667,-4.120274666666667,24.91656371522916,7.490908723589511,-2.100018133333344,0.7847232696944828
47319.0,-0.4033,-0.4424,0.3837,40.841346333333334,-248.55259266666667,9.398825333333333,24.561098336251025,5.464443183870312,-2.0483245940000105,0.7110515733756589
47330.0,-0.3101,-0.4175,0.3951,79.94054633333333,-248.55259266666667,23.818625333333333,24.59908703496683,3.4761547259720973,-1.9173221546666772,0.6531250033492824
47341.0,-0.2406,-0.4467,0.4299,116.01694633333334,-248.55259266666667,39.74232533333333,24.986915297571343,1.5147634665335992,-1.6987393653333438,0.6650137291815862
47352.0,-0.131,-0.4319,0.39,149.36044633333333,-248.55259266666667,54.94842533333333,25.686840701676257,-0.4289438084398024,-1.3965230260000105,0.5964885665291498
47363.0,-0.0258,-0.4222,0.3306,179.45964633333332,-248.55259266666667,73.81102533333333,26.65391592972314,-2.3628649555074204,-0.9905623866666773,0.5368564426362042
47374.0,0.0715,-0.374,0.2919,206.35274633333333,-248.55259266666667,97.11632533333334,27.84988832047772,-4.297590347377819,-0.456422597333344,0.47978522278202773
47385.0,0.1245,-0.358,0.3408,224.06274633333334,-248.55259266666667,122.26902533333333,29.174590420854976,-6.247803911653234,0.21605704199998932,0.5097145181373589
47396.0,0.1389,-0.334,0.4663,229.13144633333334,-248.55259266666667,142.74992533333335,30.502188177937196,-8.229070718181912,1.0011816313333228,0.5901566741129003
47407.0,0.1222,-0.2858,0.644,222.65054633333332,-248.55259266666667,154.97892533333334,31.73196272999591,-10.251462294873788,1.8535657206666563,0.7150877428679645
47418.0,0.1167,-0.2699,0.7949,207.47494633333332,-248.55259266666667,156.85682533333335,32.78809601843071,-12.316871813211513,2.7162782599999895,0.847544046053065
47429.0,0.1328,-0.262,0.8826,184.84894633333334,-248.55259266666667,151.41402533333334,33.60107784993819,-14.42098212713464,3.549055399333323,0.9301949258085641
47440.0,0.1698,-0.2552,0.9053,159.12374633333334,-242.20909266666666,141.37592533333336,34.14298845482767,-16.489535753297307,4.3266229886666565,0.9557861528605653
47451.0,0.2076,-0.2046,0.92,133.82604633333332,-222.49149266666666,129.71172533333333,34.429951731274,-18.374073232133046,5.04003747799999,0.965069386106512
47462.0,0.251,-0.1605,0.8921,111.45204633333333,-198.75869266666666,117.69652533333333,34.500225669237885,-20.03066028984303,5.687368367333323,0.9405337101879975
47646.0,-0.4951,0.0239,0.9033,80.60464633333333,251.71460733333333,-93.10507466666667,47.96079261612588,25.942092272040075,-2.8782985020000096,1.0303621256626234
47657.0,-0.5721,0.0566,0.7614,77.09324633333334,251.71460733333333,-97.22717466666667,47.499332031949834,28.389871163119548,-3.4130479626666763,0.9540607580233033
47668.0,-0.6802,0.1295,0.7517,82.97114633333334,251.71460733333333,-99.31117466666667,47.16773285183371,30.865757617106897,-3.959259423333343,1.0220054696526826
47679.0,-0.7881,0.1827,0.9033,92.16194633333333,251.71460733333333,-97.47147466666667,47.00569055067328,33.365578853014455,-4.495352534000009,1.2126136194188155
47690.0,-0.8385,0.1837,1.121,96.94054633333333,251.71460733333333,-93.65467466666666,46.95673851512685,35.870282584799654,-5.010453244666675,1.411902595790517
47701.0,-0.8351,0.1465,1.2808,92.16954633333333,251.71460733333333,-91.26537466666667,46.90118115384083,38.35917110974755,-5.5124128053333425,1.5360022460921077
47712.0,-0.826,0.1174,1.376,78.84894633333333,251.71460733333333,-90.99057466666667,46.73486615417895,40.81914648993931,-6.012860966000009,1.6091720728374574
47723.0,-0.8223,0.0787,1.3542,61.71924633333333,217.15730733333334,-92.90657466666667,46.40784832221441,42.87449056683864,-6.523847126666675,1.5862624688241225
47734.0,-0.7988,0.037,1.2122,42.352746333333336,174.64590733333335,-97.76917466666667,45.89027331956388,44.44891337086375,-7.061577587333342,1.4521980856618701
47745.0,-0.7833,0.0031,1.0066,23.719246333333334,150.10390733333335,-106.63177466666667,45.187790692929674,45.75150086138267,-7.648052348000008,1.2754654287749236
47756.0,-0.7625,-0.0059,0.8042,7.161946333333333,146.71460733333333,-119.36457466666667,44.32422729057399,47.02125098525021,-8.304557508666674,1.1082322410036625
47767.0,-0.7474,0.0477,0.684,-4.5479536666666665,156.05810733333334,-128.90657466666664,43.360095761345754,48.39847404106564,-9.013543669333341,1.0142672478198238
47778.0,-0.7513,0.0588,0.6073,-13.540353666666666,170.84430733333335,-133.20427466666666,42.32711570518615,49.94195899128761,-9.746167180000008,0.9678442126706136
47789.0,-0.7714,0.0376,0.6772,-17.906753666666667,176.96650733333334,-135.71567466666664,41.27367103655397,51.549850259093795,-10.492603390666675,1.0271667634809842
47800.0,-0.7656,0.0221,0.7886,-21.830453666666667,167.66880733333335,-136.33407466666665,40.202812365996834,53.04437589902477,-11.242440801333341,1.0993278537360907
47811.0,-0.7476,0.0302,0.8773,-26.52505366666667,142.36340733333336,-133.18897466666667,39.10708588623417,54.24599624240805,-11.974980162000008,1.153027792379698
47822.0,-0.7108,0.0509,0.9191,-32.799853666666664,106.54660733333333,-124.29587466666666,37.97166417520106,55.04033846906681,-12.658607472666676,1.163001401546877
47833.0,-0.6587,0.0745,0.9137,-40.250253666666666,66.44740733333333,-109.88367466666666,36.78649327148074,55.384971290816424,-13.262967683333342,1.1288417205259555
47844.0,-0.6146,0.0973,0.8885,-48.410553666666665,25.371107333333335,-92.22717466666667,35.546547842088685,55.276346267751684,-13.770217144000009,1.0847270163501967
47855.0,-0.5948,0.1122,0.8672,-55.89145366666666,-13.865592666666666,-71.85307466666667,34.260951279798654,54.74334918433503,-14.165409054666675,1.0575498664365666
47866.0,-0.5968,0.1047,0.8601,-60.01365366666667,-53.13279266666667,-50.19667466666667,32.96506732927778,53.795095005667605,-14.441490765333342,1.0520952143223539
47877.0,-0.6096,0.0795,0.8652,-60.65485366666667,-95.96479266666667,-29.830174666666665,31.69308993653392,52.40249695193775,-14.605556726000009,1.0613686682769565
47888.0,-0.6179,0.0236,0.8376,-57.616653666666664,-138.31599266666666,-11.250074666666666,30.47782621933245,50.58222789909257,-14.667432136666676,1.0411201323574528
47899.0,-0.623,-0.0074,0.8187,-52.547953666666665,-176.90379266666665,5.948425333333333,29.33688679324051,48.384950739345236,-14.634715797333342,1.0288116688685058
47910.0,-0.6105,-0.0382,0.7932,-47.135753666666666,-210.05639266666665,21.719425333333334,28.269671189300052,45.87709512545666,-14.51525895800001,1.0016664764281573
47921.0,-0.5988,-0.0574,0.764,-42.63195366666667,-239.26249266666665,36.07052533333333,27.263542081519148,43.108019622943765,-14.316871068666677,0.9723950843150124
47932.0,-0.5911,-0.0867,0.7073,-38.624353666666664,-248.55259266666667,49.33772533333333,26.30949504067841,40.300392428483136,-14.045513579333344,0.9258452300465775
48282.0,-0.0435,-0.0618,0.8092,-19.868553666666667,251.71460733333333,-113.98287466666667,18.968402547595005,126.51511977268267,-33.99251664600001,0.8127214344411006
48293.0,-0.0355,0.0051,0.8497,-20.807553666666667,251.71460733333333,-108.95237466666667,18.365338579835424,127.32835871893784,-34.59175470666668,0.8504565538579851
48304.0,-0.0734,0.0571,0.8573,-25.44875366666667,251.71460733333333,-93.12027466666667,17.73110037714669,128.07911177428514,-35.10391621733334,0.8623289743479572
48315.0,-0.1427,0.1025,0.8074,-32.23495366666667,251.71460733333333,-75.20427466666666,17.04829760889594,128.78195508531527,-35.51753972800001,0.8262955282464016
48326.0,-0.2491,0.0646,0.7815,-38.03655366666667,251.71460733333333,-61.71567466666667,16.322919774330636,129.4533290618088,-35.85697593866668,0.8227795695081399
48337.0,-0.3794,-0.0167,0.7866,-40.555653666666664,251.71460733333333,-54.36457466666667,15.580382658852841,130.1095153232839,-36.155981099333346,0.8734774238639486
48348.0,-0.4912,-0.0828,0.8508,-38.479253666666665,251.71460733333333,-49.68517466666667,14.86259938001306,130.75981126593564,-36.42924956000001,0.9858975200293386
48359.0,-0.5333,-0.0695,0.8806,-35.181553666666666,251.71460733333333,-46.25007466666667,14.185266567379609,131.40643944266034,-36.68362497066668,1.0318408307486189
48370.0,-0.5592,-0.0836,0.9729,-34.731153666666664,251.71460733333333,-40.15087466666667,13.516397527715878,132.04594549832518,-36.90445478133334,1.1252679725292105
48381.0,-0.5953,-0.087,1.0437,-28.784653666666667,251.71460733333333,-34.87607466666667,12.916149823795552,132.67754826621095,-37.09627319200001,1.2046828545306023
48392.0,-0.6376,-0.0583,1.1086,-18.899153666666667,251.71460733333333,-27.028674666666667,12.430339658056793,133.30146808692908,-37.24493090266668,1.2802056905044594
48403.0,-0.6545,-0.021,1.1698,-10.479253666666667,251.71460733333333,-12.295874666666666,12.045758102528897,133.91555239056555,-37.31255821333335,1.3406130276854689
48414.0,-0.6409,0.0264,1.1765,-9.028853666666667,203.69170733333334,6.872025333333333,11.690199578180618,134.00028774737248,-37.274762074000016,1.3400007537311314
48425.0,-0.6093,0.0688,1.1356,-12.250253666666667,146.22600733333334,24.673625333333334,11.316273109212046,133.46350183565488,-37.139057134666686,1.2905685917455143
48436.0,-0.5607,0.0762,1.0525,-17.028853666666667,93.83670733333334,40.29192533333333,10.907095678788092,132.37204761902547,-36.91745154533335,1.1949674388869347
48447.0,-0.5042,0.0739,0.8889,-21.570853666666668,54.79090733333333,56.18502533333333,10.464802773457853,130.88384074362534,-36.608433906000016,1.024608247087637
48458.0,-0.4772,0.0914,0.7375,-24.364753666666665,30.706907333333334,74.40642533333333,10.010309347507716,129.17308996776703,-36.19919856666668,0.8831647920971488
48469.0,-0.49,0.1234,0.6483,-23.242653666666666,14.798507333333333,96.22322533333333,9.58916573806044,127.33788734889542,-35.669970827333344,0.8219613433732756
48480.0,-0.53,0.1385,0.6348,-17.960153666666667,1.8825073333333335,115.63542533333333,9.246528144397299,125.41690636005559,-35.03397598800001,0.8384827308895516
48491.0,-0.5758,0.1311,0.6715,-10.051753666666666,-14.735792666666665,133.34532533333334,9.007179538081294,123.37324395384101,-34.300576698666674,0.8942287738604702
48502.0,-0.6263,0.0978,0.7362,-2.089953666666667,-36.08699266666667,149.21552533333335,8.864464258165421,121.15797014294237,-33.47989130933334,0.9714972825489528
48513.0,-0.6709,0.0684,0.7903,4.986346333333333,-64.12509266666667,161.59722533333334,8.802547056484864,118.70174488480085,-32.59110657000001,1.0389222588817701
48524.0,-0.7095,0.0663,0.7976,11.574146333333333,-94.62889266666667,170.23852533333334,8.81395210926239,115.98421931484252,-31.654794680666676,1.0695567773615386
48535.0,-0.7476,0.0723,0.7841,18.070346333333333,-122.17089266666667,175.89492533333333,8.896703698088603,113.04494435392057,-30.687372591333343,1.0857927334440953
48546.0,-0.7814,0.0707,0.759,23.765046333333334,-144.25489266666665,178.52092533333334,9.040370972484599,109.94962266092948,-29.70550750200001,1.0916343023192336
48557.0,-0.7872,0.0441,0.7455,27.169546333333333,-158.85789266666666,177.71172533333333,9.215981943077525,106.78090080278983,-28.728093012666676,1.0850801352895554
48568.0,-0.7655,0.0133,0.7366,26.681046333333335,-166.57549266666666,172.29192533333335,9.377815555096529,103.61079529973125,-27.780487423333344,1.0624249149939962
48579.0,-0.7367,0.0046,0.7239,22.284046333333333,-167.72049266666664,163.30722533333335,9.483699442168454,100.50665516546476,-26.88229768400001,1.0328500665633904
48590.0,-0.7013,0.0062,0.7126,15.650546333333333,-163.85789266666666,153.46752533333336,9.511487873915783,97.51740852608872,-26.03822629466668,0.9998294304530149
48601.0,-0.6758,0.0289,0.7274,9.261146333333333,-158.96479266666665,143.21552533333335,9.468354655636698,94.64755123036676,-25.250540905333345,0.993303382658088
48612.0,-0.6683,0.0344,0.7469,6.306946333333333,-156.99539266666665,132.36062533333333,9.39345995470596,91.86047672015457,-24.522557466000013,1.002829925760096
48623.0,-0.6622,0.0367,0.7655,9.994046333333333,-159.50679266666666,121.62782533333333,9.35931878101602,89.10395266074585,-23.853604426666678,1.012840550136101
48634.0,-0.6497,0.0283,0.7833,17.856646333333334,-163.57549266666666,109.24612533333332,9.409208060613933,86.35802970100298,-23.252750737333344,1.0180716428621317
48645.0,-0.6377,0.0281,0.8234,27.703946333333334,-166.49919266666666,94.43692533333333,9.562862631695221,83.63098358633096,-22.73334764800001,1.0418437790763067
48656.0,-0.5918,0.0752,0.8677,34.497846333333335,-171.61369266666665,80.01712533333333,9.790679243798381,80.8921685004846,-22.293253458666676,1.0529888745851022
48667.0,-0.561,0.0856,0.9471,35.154346333333336,-177.76639266666666,64.43692533333333,10.025535084444385,78.12359773399203,-21.93885036933334,1.1041045104517961
48678.0,-0.5033,0.1093,0.9716,28.940546333333334,-183.85029266666666,47.31482533333333,10.195414270563658,75.32190975788211,-21.67861883000001,1.0996653763759228
48689.0,-0.4432,0.1522,1.0137,16.268846333333332,-183.70529266666665,32.11632533333333,10.235974984094133,72.54929711104627,-21.501979040666676,1.1167715836284517
48700.0,-0.4019,0.1766,1.0383,0.963446333333333,-181.78159266666665,19.360625333333335,10.122904815982068,69.82215638370711,-21.39549560133334,1.1272879224049197
48711.0,-0.3595,0.1917,1.0498,-12.601453666666666,-180.72819266666664,8.887325333333333,9.878425036529165,67.12891261343289,-21.346615312000008,1.1260857782602531
48722.0,-0.3086,0.2114,1.0349,-22.891453666666667,-181.42279266666665,0,9.541588280207357,64.44949859827238,-21.346615312000008,1.1004280667085877
48733.0,-0.2655,0.2197,1.0316,-29.349453666666665,-183.25489266666665,-6.2271746666666665,9.155257952925764,61.77068993428875,-21.380864772666676,1.087638221101116
48744.0,-0.2291,0.2435,1.0195,-33.92205366666667,-187.20149266666667,-11.624074666666667,8.742266963721395,59.069988190901945,-21.444797183333343,1.0729209243928464
48755.0,-0.1949,0.2584,1.0062,-37.44875366666667,-191.19379266666667,-15.937074666666668,8.314888947750173,56.34769323923477,-21.53245109400001,1.0569744604293898
48766.0,-0.1494,0.2832,0.9792,-40.509853666666665,-195.53729266666664,-20.280574666666666,7.88026973568579,53.60006587034787,-21.643994254666676,1.030220966589207
48777.0,-0.1072,0.2882,0.9279,-43.39525366666667,-196.55259266666667,-24.578274666666665,7.440462052314784,50.864193507656005,-21.779174765333345,0.9775221173968393
48788.0,-0.0624,0.2474,0.8748,-45.24265366666667,-190.79689266666665,-28.746274666666665,7.00196035612144,48.212757371232854,-21.937279276000012,0.9112494499312469
48799.0,-0.0278,0.2134,0.8842,-46.21205366666667,-182.03349266666666,-32.80727466666667,6.569367341166311,45.674558955376924,-22.11771928666668,0.9100121098095344
48810.0,-0.0071,0.1926,0.9532,-49.21205366666667,-175.60599266666665,-37.72337466666667,6.116304220374825,43.21984489233808,-22.325197847333346,0.972489285288018
48821.0,0.0167,0.1716,0.9447,-58.54035366666667,-167.98769266666665,-44.34167466666667,5.572398997989873,40.86055425445264,-22.569077058000012,0.9603038789883127
48832.0,0.0262,0.1702,0.9238,-69.89145366666666,-155.46099266666667,-50.76147466666667,4.917753020023957,38.65034880804814,-22.84826516866668,0.9397132115704238
48843.0,0.026,0.1635,0.8855,-80.98305366666666,-140.27019266666665,-56.85317466666667,4.157192177418531,36.618866503191846,-23.160957629333346,0.900843216103668
48854.0,0.0306,0.1359,0.8361,-91.61665366666666,-122.88849266666666,-63.95997466666667,3.295423807030532,34.789186737184885,-23.512737490000013,0.8476251412033505
48865.0,0.0569,0.1057,0.7877,-99.71595366666666,-104.86559266666667,-72.12797466666667,2.359331623978502,33.16398868286484,-23.90944135066668,0.7967944465167913
48876.0,0.0906,0.0729,0.7635,-103.47925366666666,-84.92669266666667,-80.10507466666667,1.3939108177159079,31.75786448217601,-24.350019261333344,0.7723050045157029
48887.0,0.1294,0.0544,0.7784,-103.28845366666667,-63.59079266666667,-87.38747466666668,0.44020193295701093,30.578134145670337,-24.83065037200001,0.7909552958290373
48898.0,0.1735,0.0719,0.7845,-103.06705366666667,-45.26249266666667,-93.05157466666667,-0.4989479329900678,29.58429106909144,-25.342434032666677,0.8066672858124345
48909.0,0.2007,0.0907,0.7819,-105.50215366666667,-28.987692666666668,-96.86837466666667,-1.44957253079118,28.74958729450922,-25.875210093333344,0.8123266522772721
48920.0,0.2297,0.101,0.7478,-108.15865366666667,-13.346492666666666,-98.81497466666667,-2.4116089853107034,28.0631087658256,-26.41869245400001,0.7887762230189245
48931.0,0.2629,0.0897,0.7014,-108.57085366666666,4.111507333333334,-98.43327466666668,-3.3612334742088072,27.539703002974825,-26.960075464666676,0.7544033801620987
48942.0,0.2817,0.0488,0.6826,-107.28075366666667,27.218407333333335,-97.35697466666667,-4.285584033120741,27.23698473833861,-27.495538825333345,0.7400534372597697
48953.0,0.2849,0.0114,0.6742,-105.32655366666667,54.44740733333333,-96.91417466666667,-5.182714619458351,27.1971696892757,-28.02856678600001,0.7320133946861902
48964.0,0.2656,-0.0123,0.6672,-100.04415366666667,84.69170733333333,-97.43327466666668,-6.019775993517196,27.452845325271277,-28.564449796666675,0.718227324737788
48975.0,0.2395,-0.035,0.6837,-92.44115366666666,114.26420733333333,-98.59357466666667,-6.775459778259446,27.99727829011806,-29.106714457333343,0.7252799045885664
48986.0,0.2107,-0.0441,0.6682,-86.63955366666667,147.12680733333335,-100.43327466666668,-7.470583731020459,28.86606837794691,-29.65909746800001,0.7020189028794026
48997.0,0.1614,-0.0596,0.6349,-83.95255366666667,179.09620733333335,-101.64697466666667,-8.140505047651502,30.051154378714806,-30.218155828666674,0.657799460322065
49008.0,0.1104,-0.0828,0.5714,-84.09755366666667,217.41690733333334,-102.40277466666667,-8.817933821622947,31.621696819660595,-30.78137108933334,0.5878281721727873
49019.0,0.0178,-0.1079,0.5563,-84.21975366666666,251.71460733333333,-102.87607466666667,-9.505167716827408,33.54092401279054,-31.347189500000006,0.5669470345631944
49030.0,-0.078,-0.1161,0.5952,-81.08995366666667,251.71460733333333,-103.53247466666667,-10.167212640170794,35.447700949191486,-31.916618110666672,0.611413321739067
49041.0,-0.1403,-0.113,0.7267,-73.88385366666667,251.71460733333333,-104.31117466666667,-10.758733127925698,37.35265071359027,-32.49032957133334,0.7486961867139434
49052.0,-0.1694,-0.0428,0.8837,-66.30365366666666,251.71460733333333,-100.65467466666666,-11.263646570173725,39.25819791207153,-33.043930282000005,0.9008073545436894
49063.0,-0.1793,0.0447,0.9626,-60.135753666666666,251.71460733333333,-89.15087466666667,-11.68446103471806,41.160814312057795,-33.53426009266667,0.9801761780414785
49074.0,-0.1863,0.0488,0.974,-55.17395366666667,251.71460733333333,-71.43327466666668,-12.036402474691984,43.05626756335002,-33.927143103333336,0.9928570541623805
49085.0,-0.2231,0.0349,0.8882,-49.92205366666667,251.71460733333333,-53.92947466666667,-12.320630220800467,44.9458326064993,-34.223755214,0.9164555963056803
49275.0,-0.7407,-0.0303,0.8987,27.276446333333332,-175.27779266666664,207.63542533333333,-6.988045493225417,11.549256469468393,-14.498389807333332,1.164996253212859
49286.0,-0.7681,-0.0179,0.8938,27.322246333333332,-192.08699266666665,198.57432533333335,-6.54984327173298,9.477985257365397,-13.406231018,1.1786333017525001
49297.0,-0.7722,-0.0027,0.9103,25.955846333333334,-202.14799266666665,189.99422533333333,-6.135992818811293,7.4176023811721,-12.361262778666667,1.193711112455606
49308.0,-0.7646,0.0295,0.9445,23.314646333333332,-208.50679266666666,180.68122533333334,-5.755417704492734,5.393622546274819,-11.367516039333333,1.2155507640571823
49319.0,-0.7664,0.0862,1.0475,18.696346333333334,-216.35409266666665,170.45982533333336,-5.422292960005876,3.3748579960915306,-10.429987,1.3007903943372277
49330.0,-0.7347,0.1694,1.1183,9.894746333333334,-235.75869266666666,159.45982533333336,-5.172588381499344,1.2214440593675804,-9.552957960666667,1.348731010987736
49341.0,-0.6912,0.2419,1.0905,1.108546333333333,-248.55259266666667,151.94842533333335,-4.998941977631173,-1.0017633226762943,-8.717241621333335,1.313568917110937
49352.0,-0.649,0.2684,1.1279,-8.708253666666668,-248.55259266666667,147.37592533333336,-4.9118144501690155,-3.1654404940395366,-7.9066740320000015,1.3286827951019762
49363.0,-0.5879,0.2522,1.1357,-23.738853666666667,-248.55259266666667,142.70412533333334,-4.9707718719166,-5.279497926093827,-7.121801342666668,1.3034744876674802
49374.0,-0.5415,0.2527,1.1307,-38.845653666666664,-248.55259266666667,135.87202533333334,-5.175956700850748,-7.350121262285966,-6.374505203333335,1.2788909374923259
49385.0,-0.4946,0.2531,1.087,-52.81515366666667,-248.55259266666667,128.58202533333335,-5.513539581832491,-9.380870928842903,-5.667304064000001,1.2207611437132162
49396.0,-0.4365,0.2202,1.0381,-62.49455366666667,-248.55259266666667,121.39112533333333,-5.938908853335561,-11.375749238981875,-4.999652874666668,1.1474632455987426
49407.0,-0.3967,0.1929,1.0057,-67.04415366666667,-248.55259266666667,112.47512533333332,-6.39831648869259,-13.337366662513375,-4.381039685333335,1.0981865916136475
49418.0,-0.3495,0.1573,0.9729,-71.31135366666666,-248.55259266666667,102.04762533333333,-6.891747126231319,-15.268878952484535,-3.819777746000002,1.0456710524825672
49429.0,-0.3127,0.1268,0.8778,-77.07465366666666,-248.55259266666667,90.07812533333333,-7.436730720460985,-17.16956960945199,-3.3243480566666688,0.9404213789573268
49440.0,-0.2662,0.0402,0.8783,-80.28075366666667,-248.55259266666667,76.40642533333333,-8.013816571921126,-19.044160621788848,-2.9041127173333354,0.9186345138301739
49451.0,-0.2316,-0.0178,0.9343,-81.06705366666667,-238.27779266666664,56.68122533333333,-8.602486590036488,-20.787417896138734,-2.592365978000002,0.9627418605212926
49462.0,-0.1974,-0.0676,0.9371,-86.28075366666667,-229.04119266666666,32.414025333333335,-9.254458413528742,-22.415395944631438,-2.4140888386666686,0.9600483998215924
49473.0,-0.1514,-0.0455,0.882,-96.31135366666666,-217.05639266666665,7.322425333333333,-10.015795495222463,-23.901861123959986,-2.373815499333335,0.8960559190139865
49484.0,-0.0873,-0.0341,0.7554,-110.23495366666667,-194.49149266666666,-13.280574666666666,-10.922823039687392,-25.13624078227056,-2.446858660000002,0.7611919994324691
49495.0,-0.0028,-0.0641,0.6774,-120.72355366666666,-160.32359266666666,-32.47147466666667,-11.937932080835774,-26.00414468344652,-2.6254517706666687,0.6804317820325562
49506.0,0.0549,-0.0847,0.6671,-126.55565366666667,-129.45339266666664,-49.60887466666667,-13.01073797911183,-26.554005749123622,-2.898300581333335,0.6746929005110399
49517.0,0.106,-0.1102,0.6497,-130.35715366666668,-103.41519266666667,-68.18897466666667,-14.120855654200867,-26.84889466786553,-3.2733399420000016,0.6674504700724991
49528.0,0.1411,-0.1149,0.5887,-130.05945366666666,-78.60599266666667,-87.05927466666667,-15.223230103538189,-26.908600704807547,-3.752165952666668,0.616180906877193
49539.0,0.1721,-0.1155,0.5159,-125.28075366666667,-50.40759266666667,-104.46377466666667,-16.269312206099432,-26.702583012029987,-4.326716713333335,0.5559779402098612
49550.0,0.1857,-0.1179,0.4843,-118.16625366666666,-17.575492666666666,-120.52487466666668,-17.235169675433276,-26.18679249589063,-4.989603524000001,0.5319129534049721
50724.0,-0.5421,0.2377,1.0209,-45.273153666666666,-198.80449266666665,106.57432533333333,-68.95951377099762,-254.16597136288038,57.56952544666666,1.1800891957814037
50735.0,-0.5238,0.2156,1.0424,-34.90675366666667,-220.92659266666666,102.45982533333333,-67.91115000999315,-251.19640174185773,58.13305448599999,1.1863589507396148
50746.0,-0.5238,0.1986,1.0197,-24.891453666666667,-241.38469266666667,97.94842533333333,-66.75549393988686,-248.47069692210465,58.671770825333326,1.1634416573253685
50757.0,-0.4974,0.2036,0.9764,-18.250253666666666,-248.55259266666667,91.92552533333333,-65.5331668035743,-245.84790296522388,59.17736121466666,1.1145477468462264
50768.0,-0.4487,0.1898,0.9268,-16.349453666666665,-248.55259266666667,83.69652533333333,-64.30027253743039,-243.25666805445908,59.637692103999996,1.0470501277398325
50779.0,-0.4014,0.1602,0.8652,-18.196853666666666,-248.55259266666667,70.84912533333333,-63.102097432359756,-240.70214094708095,60.027362293333326,0.9671385836579988
50790.0,-0.355,0.1398,0.8086,-21.410553666666665,-241.31599266666666,54.68882533333333,-61.955450797561376,-238.11042559080246,60.32815083266666,0.8940933955689416
50801.0,-0.307,0.1334,0.8079,-24.212053666666666,-215.91139266666664,35.62012533333333,-60.85613008786463,-235.29312354061688,60.52406152199999,0.874498124640642
50812.0,-0.2518,0.1285,0.8704,-30.059453666666666,-189.01059266666667,15.421725333333335,-59.837754112730856,-232.24820343757943,60.608881011333324,0.9151566259389701
50823.0,-0.2147,0.1125,0.9143,-39.92965366666667,-166.41519266666666,-3.4637746666666662,-58.9449136641303,-229.03225085257486,60.58983025066666,0.9458841525260903
50834.0,-0.1882,0.0846,0.9524,-50.58615366666667,-149.52969266666665,-21.761474666666665,-58.18758177327385,-225.7136367833981,60.47014213999999,0.9744958491445718
50845.0,-0.1541,0.0817,0.984,-58.624353666666664,-141.72819266666664,-39.63937466666667,-57.535159616379104,-222.39588258855585,60.252125579333324,0.9993386312957185
50856.0,-0.123,0.141,0.964,-64.22735366666667,-142.82739266666667,-56.41037466666667,-56.951330953155406,-219.1758430226276,59.94186851866666,0.9819908349877813
50867.0,-0.053,0.1849,0.8899,-68.01365366666667,-145.65179266666667,-66.76147466666667,-56.40903452937766,-216.07415907568648,59.57468040799999,0.9104498997748312
50878.0,0.0436,0.1846,0.7548,-71.57855366666666,-139.55259266666667,-72.68517466666667,-55.90368628198376,-212.99813979464963,59.17491194733333,0.778268051509247
50889.0,0.0875,0.1592,0.7599,-73.38765366666667,-124.68239266666667,-79.99057466666667,-55.41969058635815,-209.85660376853457,58.73496378666666,0.7813122935164913
50900.0,0.1279,0.1322,0.8208,-74.47165366666667,-107.56789266666667,-89.99817466666667,-54.95396274182552,-206.63104933826023,58.239973825999996,0.8411586592314199
50911.0,0.1805,0.1547,0.8986,-79.91435366666667,-94.02589266666666,-101.15087466666667,-54.551924401154814,-203.36681906886184,57.68364401533333,0.9295129369729073
50922.0,0.2439,0.2036,1.0031,-90.50985366666667,-88.31599266666667,-104.95237466666667,-54.26410004285153,-200.15433655213528,57.10640595466666,1.0522118512923146
50933.0,0.2531,0.2429,1.0278,-102.10525366666667,-89.20149266666667,-109.83027466666667,-54.09577823722108,-197.05918950397813,56.50233944399999,1.086016970401476
50944.0,0.2554,0.2692,0.9976,-116.92205366666667,-92.67469266666667,-111.28057466666667,-54.07707171412226,-194.10170436745312,55.89029628333333,1.0643794248293228
50955.0,0.2617,0.2858,0.913,-128.45635366666667,-90.78159266666667,-110.56307466666667,-54.16748696817336,-191.21769203799946,55.28219937266666,0.9918354349386798
50966.0,0.2848,0.2654,0.8302,-135.05175366666666,-80.04879266666667,-108.74627466666666,-54.31392755831929,-188.31023507374582,54.684094861999995,0.91694069601038
50977.0,0.3281,0.2108,0.7657,-140.03655366666666,-63.24729266666667,-109.57827466666667,-54.50448423145927,-185.31753415623697,54.08141435133333,0.8592919992645108
50988.0,0.365,0.1696,0.6793,-140.41055366666666,-40.96479266666667,-110.85307466666667,-54.69235335120972,-182.18532167499933,53.47172244066666,0.7895806798548202
50999.0,0.3975,0.1368,0.505,-133.13575366666666,-11.125092666666665,-110.90657466666667,-54.795266750870745,-178.84015849310387,52.861736279999995,0.6570734281646154
51010.0,0.4423,0.1095,0.3639,-114.90675366666666,33.165007333333335,-104.12797466666667,-54.69724979851776,-175.13915504108883,52.28903241933333,0.5831318461548812
51021.0,0.4352,0.089,0.4111,-97.78465366666667,76.82140733333333,-94.57067466666668,-54.419086203948346,-171.0928067813946,51.76889370866667,0.6052464374120677
51032.0,0.3844,0.0311,0.5057,-87.62435366666666,114.27180733333333,-86.00577466666667,-54.05062715184062,-166.76164203107663,51.295861948,0.6359741032463507
51043.0,0.3156,0.0331,0.5446,-80.89915366666666,145.69170733333334,-79.60887466666667,-53.63033400857515,-162.20205392373555,50.85801313733334,0.6303079644110487
51054.0,0.1959,-0.0099,0.5902,-73.24265366666667,174.89010733333333,-76.76917466666667,-53.15521602136725,-157.4207050222644,50.43578267666667,0.6219412030087732
51065.0,0.1132,-0.0931,0.629,-64.22735366666667,202.64590733333335,-82.68517466666667,-52.62376781635981,-152.4229480350055,49.981014216000005,0.6458504857937323
51076.0,0.042,-0.1416,0.6335,-54.135753666666666,231.73750733333335,-93.79207466666666,-52.03078663251091,-147.188411496024,49.46515780533334,0.6504896694029814
51087.0,-0.0179,-0.1461,0.6497,-43.38005366666667,251.71460733333333,-102.63177466666667,-51.368545252673584,-141.81167376337999,48.90068304466667,0.6661649270263333
51098.0,-0.0797,-0.146,0.693,-35.34945366666667,251.71460733333333,-109.15847466666666,-50.66544184311283,-136.50194023514874,48.300311434,0.712683022107304
51109.0,-0.1412,-0.1151,0.7242,-30.563253666666668,251.71460733333333,-117.44087466666667,-49.949427576721895,-131.2506368380548,47.65438662333334,0.7467603966467423
51120.0,-0.1936,-0.0525,0.7336,-26.021253666666667,251.71460733333333,-124.73857466666666,-49.21068282253027,-126.05254708629415,46.96832446266667,0.7605301900647995
51131.0,-0.2372,0.0118,0.7034,-18.654853666666668,251.71460733333333,-127.85307466666667,-48.407330820066434,-120.9051498264285,46.265132552000004,0.7424113684474397
51142.0,-0.2795,0.0281,0.7429,-6.998353666666667,251.71460733333333,-125.27297466666667,-47.4918762561447,-115.80544035167266,45.57613119133334,0.7942356514284662
51153.0,-0.2816,0.0363,0.7218,6.505446333333333,251.71460733333333,-117.28827466666667,-46.445548312260286,-110.75818083870917,44.93104568066667,0.7756361840450715
51164.0,-0.3331,0.0458,0.7087,21.230646333333333,251.71460733333333,-103.73097466666667,-45.25663151088681,-105.7591184391972,44.36052532,0.7844163052869312
51175.0,-0.4297,-0.0906,0.9481,41.04744633333333,251.71460733333333,-93.87607466666667,-43.896316971151194,-100.80168864096792,43.84420690933334,1.0448655703007923
51186.0,-0.5106,-0.1425,1.0947,59.39094633333333,251.71460733333333,-93.08217466666667,-42.38854772515845,-95.88621044249227,43.33225494866667,1.2163004151935493
51197.0,-0.5245,-0.132,1.239,64.01694633333332,251.71460733333333,-93.73857466666666,-40.877737376447705,-91.02495051110091,42.816692788000005,1.3519043050452944
51208.0,-0.4918,0.0173,1.1801,52.87954633333333,234.86720733333334,-90.21187466666667,-39.51100352241855,-86.40998834308061,42.320527477333336,1.2785939699529323
51219.0,-0.452,0.1183,1.041,34.09324633333333,215.11910733333335,-81.73857466666666,-38.3563381509772,-82.07408095523122,41.87096531666667,1.1410433339711512
51230.0,-0.3955,0.121,0.8743,16.413846333333332,212.32530733333334,-71.31877466666667,-37.399599668667385,-77.83396550322988,41.478712056000006,0.9671927108906477
51241.0,-0.3098,0.0366,0.8005,4.055046333333333,216.59240733333334,-65.05927466666667,-36.591745770143945,-73.62179040339593,41.12088604533334,0.8591366887754242
51252.0,-0.3325,0.0642,0.7216,-6.700653666666667,230.95880733333334,-57.89127466666667,-35.90910820213885,-69.32338822019015,40.802484034666676,0.7971100614093389
51263.0,-0.4639,0.0841,0.7405,-13.494553666666667,243.45500733333336,-42.69277466666667,-35.30462848628743,-64.94629800097992,40.567673774000006,0.8778475209283216
51274.0,-0.5621,0.0594,0.8031,-11.036553666666666,247.34050733333333,-24.112674666666667,-34.68144713081188,-60.5784755300074,40.43505406333334,0.9820663826849997
51285.0,-0.5924,0.0508,0.9312,-5.105253666666667,237.68400733333334,-7.776774666666666,-34.00467156597805,-56.372272548055086,40.39228180266667,1.1048311364185932
51296.0,-0.5724,0.0508,1.1157,-3.9830536666666667,206.03520733333335,5.360625333333333,-33.328217322846,-52.57661050995082,40.421765242000006,1.2549935816568942
51307.0,-0.533,0.0601,1.2653,-10.242653666666667,154.08100733333333,20.001825333333333,-32.731257763000414,-49.415573285221996,40.53177528133334,1.3742944007744484
51318.0,-0.4933,0.104,1.317,-20.509853666666668,89.58480733333333,41.45982533333333,-32.25090219454204,-47.018212583304475,40.759804320666674,1.410194982972213
51329.0,-0.4904,0.1606,1.2845,-31.609053666666668,22.943607333333333,68.99422533333333,-31.88854592093075,-45.390484865077056,41.13927256000001,1.3842777069648995
51340.0,-0.4866,0.2156,1.1532,-38.532753666666665,-37.62889266666667,97.55912533333333,-31.591982449875378,-44.44625191645618,41.67584774933334,1.2700917919583607
51351.0,-0.5165,0.2683,0.9723,-40.433453666666665,-80.24729266666667,128.92552533333335,-31.301045867724135,-43.96838613012165,42.384938138666676,1.1331921416953084
51362.0,-0.4973,0.2256,0.8513,-37.593753666666665,-108.61369266666667,159.99422533333333,-30.969992668238785,-43.79192923879896,43.264906378000006,1.011392278000974
51373.0,-0.4674,0.1949,0.7686,-33.51745366666667,-129.14799266666665,185.46752533333336,-30.589898219240695,-43.82689302072225,44.28497776733334,0.9204318171380214
51384.0,-0.5031,0.1704,0.7404,-33.570853666666665,-143.70529266666665,202.20792533333335,-30.20966612865609,-44.000676210378984,45.39712135666667,0.9112288022225812
51395.0,-0.5551,0.1428,0.6724,-33.807553666666664,-149.94949266666666,214.75752533333335,-29.834459734557136,-44.21352735545884,46.57828774600001,0.8835437793341085
51406.0,-0.601,0.1373,0.6296,-29.769353666666667,-148.57549266666666,223.82622533333335,-29.41889376392137,-44.377289602362715,47.809331985333344,0.881163123377278
51417.0,-0.6366,0.1262,0.6477,-21.143353666666666,-141.80449266666665,228.21552533333335,-28.91645356532923,-44.434232973151786,49.06451737466668,0.9168976442329865
51428.0,-0.6449,0.1311,0.7092,-11.708253666666668,-132.57549266666666,225.85682533333335,-28.320683126718382,-44.365219968130326,50.30672991400001,0.9674956640729715
51439.0,-0.647,0.1595,0.7949,-7.059453666666666,-122.16329266666666,220.20032533333335,-27.68308789426611,-44.167359598053,51.51783170333334,1.0372633513240503
51450.0,-0.6274,0.2057,0.8973,-10.464053666666667,-112.94949266666667,214.94842533333335,-27.08765412366483,-43.86624267912258,52.70004804266668,1.1140424318669373
51461.0,-0.6274,0.2736,0.9751,-23.204453666666666,-106.30829266666667,211.96362533333334,-26.628560154225298,-43.49728707017908,53.86584798200001,1.1913470233311534
51472.0,-0.6522,0.373,1.0288,-43.38005366666667,-105.76629266666667,210.70412533333334,-26.375155004588933,-43.12870990434243,55.02472067133335,1.273940061384365
51483.0,-0.6676,0.434,1.0304,-65.72355366666666,-112.85029266666668,212.30722533333335,-26.343357732863034,-42.841535931665064,56.19241041066668,1.3022173090540612
51494.0,-0.6659,0.4354,0.9899,-84.26555366666666,-123.05639266666667,216.91022533333336,-26.490209910222227,-42.66593685776325,57.38541665000002,1.2699992047241604
51505.0,-0.651,0.391,0.9165,-95.79225366666667,-134.52209266666665,221.00942533333335,-26.74225149165961,-42.61090516880958,58.600968489333354,1.190232855369066
51516.0,-0.6128,0.369,0.8562,-99.31135366666666,-144.10219266666667,223.03242533333335,-27.0134334966911,-42.65434565301487,59.82764682866669,1.1156895984098802
51699.0,0.0084,0.2007,0.8209,-57.227353666666666,-142.02589266666666,-26.066874666666667,-36.467836615901206,-66.66471008292683,57.44252779666669,0.8451200269784168
51710.0,0.0686,0.1862,0.8126,-47.99075366666667,-148.62129266666665,-21.204274666666667,-35.98467445199093,-66.38014943922659,57.325904286000025,0.8364778299512785
51721.0,0.105,0.1355,0.8307,-38.670153666666664,-152.42279266666665,-14.181374666666667,-35.41439926655832,-66.19902629600544,57.24790672533336,0.8482026526721076
51732.0,0.1139,0.0646,0.8762,-32.31135366666667,-152.00299266666664,-12.288274666666666,-34.800300286372895,-66.07411419961967,57.18032121466669,0.8859304769562902
51743.0,0.1184,0.0433,0.9369,-30.731153666666668,-150.69759266666665,-16.349274666666666,-34.19843383761433,-65.99407460253953,57.09040020400003,0.9453438845203368
51754.0,0.1318,0.0533,0.9873,-37.33425366666667,-146.81209266666664,-23.845474666666668,-33.695819647883596,-65.92893466612347,56.95925009333336,0.9974835437239052
51765.0,0.1509,0.0521,1.0299,-51.273153666666666,-142.01059266666667,-32.29587466666667,-33.36946957574895,-65.86678455162027,56.781622782666695,1.042199227595185
51776.0,0.1566,0.0394,1.0482,-68.63195366666666,-139.49919266666666,-42.21187466666667,-33.25331532935711,-65.82770106274647,56.54945747200003,1.060565490669954
51787.0,0.1082,0.0597,1.0428,-85.18915366666667,-138.48389266666666,-53.06687466666667,-33.33066209520925,-65.81600766216556,56.25758966133336,1.0500967431622668
51798.0,0.1201,0.0598,0.9729,-96.17395366666666,-139.20149266666667,-63.87607466666667,-33.535103224755666,-65.84588734441957,55.9062712506667,0.9821071530133563
51809.0,0.1136,0.0676,0.9677,-104.08995366666667,-138.14799266666665,-74.83787466666666,-33.82913266572002,-65.8931938759134,55.49466294000003,0.9766872631502881
51820.0,0.1456,0.0844,0.9003,-109.46395366666667,-134.33119266666665,-84.68517466666667,-34.17970467992799,-65.92801438235942,55.02889447933337,0.915894540872474
51831.0,0.1831,0.0924,0.8433,-112.56325366666667,-127.72819266666666,-93.06687466666666,-34.55895462223159,-65.92213240476099,54.5170266686667,0.8678814780832692
51842.0,0.236,0.0845,0.7755,-113.79225366666667,-116.92669266666667,-99.69277466666666,-34.94592502572642,-65.83498779984872,53.968716408000034,0.8150070551841867
51853.0,0.275,0.0912,0.7214,-114.62435366666666,-98.81209266666667,-103.25767466666667,-35.33444386225259,-65.59195278085235,53.40079919733337,0.7774062001296362
51864.0,0.3003,0.0713,0.6929,-115.96015366666667,-77.49919266666667,-105.68517466666667,-35.73214135873654,-65.16274763696015,52.81953073666671,0.7585342378561432
