tempo_ms,ax,ay,az,gx,gy,gz,pitch,roll,yaw,magnitude
5744.0,0.0477,-0.0189,0.9161,0,0,0,-0.0021840771935666458,-0.005512222754645622,0.0,0.9175356723310544
5760.0,0.052,-0.0217,0.9142,0,0,0,-0.0066487294813823185,-0.01645816478835512,0.0,0.9159347847963849
5776.0,0.0483,-0.0186,0.9172,0,0,0,-0.012781627531861784,-0.0318106856042618,0.0,0.9186591805452118
5791.0,0.0486,-0.0222,0.9133,0,0,0,-0.02082200448001316,-0.05111635101183298,0.0,0.9148615687632747
5808.0,0.0488,-0.0204,0.9159,0,0,0,-0.030334964601223896,-0.073935155731877,0.0,0.9174259697654085
5823.0,0.0525,-0.0217,0.9188,0,0,0,-0.04129481045414757,-0.10027738569587102,0.0,0.920554495942527
5838.0,0.0485,-0.0187,0.918,0,0,0,-0.05316407675912947,-0.12923083518143827,0.0,0.9194704671711865
5855.0,0.0477,-0.0212,0.9109,0,0,0,-0.06613116377938513,-0.1603820848799522,0.0,0.9123943993690448
5870.0,0.0482,-0.02,0.9183,0,0,0,-0.07989450452488084,-0.19346402452058362,0.0,0.9197815664602113
5885.0,0.0472,-0.0216,0.9121,0,0,0,-0.09454327414942257,-0.22810202418587194,0.0,0.9135758370272279
5902.0,0.0511,-0.0217,0.9165,0,0,0,-0.10995498622936017,-0.26451250722793646,0.0,0.918179911564177
5917.0,0.0498,-0.0208,0.9139,0,0,0,-0.1259094450466995,-0.30227945952744956,0.0,0.9154921572575049
5934.0,0.0497,-0.0223,0.9139,0,0,0,-0.14249822094928827,-0.3411655256563149,0.0,0.9155220314115876
5949.0,0.0488,-0.022,0.9159,0,0,0,-0.15957660184379766,-0.3808492188578829,0.0,0.9174629420309031
5964.0,0.049,-0.0197,0.9155,0,0,0,-0.17677428095815256,-0.42118948405740697,0.0,0.9170219953741567
5981.0,0.047,-0.0195,0.9176,0,0,0,-0.19401525435911296,-0.4617763553652275,0.0,0.9190097986419948
5996.0,0.0508,-0.0186,0.9133,0,0,0,-0.2111595137311016,-0.5029931281626745,0.0,0.9149008088312087
6012.0,0.0494,-0.0206,0.9169,0,0,0,-0.22842345836734335,-0.5444951102235458,0.0,0.9184608483762388
6028.0,0.0485,-0.0211,0.9163,0,0,0,-0.2458226805293641,-0.5860604890397609,0.0,0.9178252284612796
6043.0,0.0485,-0.0206,0.9132,0,0,0,-0.2632530954031878,-0.6276183653827591,0.0,0.914719000567934
6060.0,0.0474,-0.0173,0.9174,0,0,0,-0.28025863011621927,-0.6689280553936879,0.0,0.9187865965500367
6075.0,0.0498,-0.0189,0.9176,0,0,0,-0.2970526542772578,-0.7102328604292413,0.0,0.9191447165707911
6091.0,0.0513,-0.0197,0.9164,0,0,0,-0.3137285676747822,-0.7516447139807249,0.0,0.9180461535238846
6107.0,0.0483,-0.0154,0.9152,0,0,0,-0.3297372513306623,-0.7927049854052562,0.0,0.9166030165780604
6122.0,0.0465,-0.0204,0.9122,0,0,0,-0.3457530902047202,-0.8331688053832119,0.0,0.9136121989115513
6138.0,0.0497,-0.0214,0.9141,0,0,0,-0.3618629727429468,-0.8734117041436206,0.0,0.9157002020312106
6154.0,0.0481,-0.0211,0.916,0,0,0,-0.37798221006765814,-0.913169464306758,0.0,0.9175046702878411
6169.0,0.048,-0.02,0.9154,0,0,0,-0.39394247197970117,-0.9524114072806,0.0,0.9168757603950494
6185.0,0.0475,-0.0217,0.9166,0,0,0,-0.40993923766124407,-0.9910504781208993,0.0,0.9180864338394288
6201.0,0.0493,-0.021,0.9142,0,0,0,-0.425855326790585,-1.0293196165514527,0.0,0.9157691466739857
6217.0,0.0474,-0.0195,0.917,0,0,0,-0.44147474225302213,-1.0669321618607306,0.0,0.9184312766886807
6233.0,0.0468,-0.0179,0.9203,0,0,0,-0.4565935030185353,-1.1037948733718248,0.0,0.9216630295286884
6248.0,0.0499,-0.0219,0.9171,0,0,0,-0.47174640822993885,-1.1403284077502434,0.0,0.9187176007892741
6264.0,0.0509,-0.0209,0.9156,0,0,0,-0.48677853363404894,-1.1766327219424866,0.0,0.9172518629035321
6280.0,0.0486,-0.0215,0.9143,0,0,0,-0.5017527201502476,-1.2123846093944926,0.0,0.9158431634291977
6296.0,0.0496,-0.0227,0.917,0,0,0,-0.5167881223276113,-1.2476849361129905,0.0,0.9186209501203422
6311.0,0.0513,-0.0201,0.9154,0,0,0,-0.5315275913097712,-1.2827385446229056,0.0,0.9170566285677237
6327.0,0.0514,-0.0189,0.9154,0,0,0,-0.5458269435834292,-1.317517092827214,0.0,0.9170367113698339
6343.0,0.049,-0.0227,0.9154,0,0,0,-0.5601836607574422,-1.3516846408860148,0.0,0.9169915212257963
6359.0,0.0502,-0.0231,0.9164,0,0,0,-0.574609308687581,-1.3853879032838292,0.0,0.9180646001235425
6374.0,0.0494,-0.0183,0.9147,0,0,0,-0.5884731088438664,-1.4185258641705538,0.0,0.916215771529829
6390.0,0.0488,-0.0222,0.9164,0,0,0,-0.6022954709963472,-1.4510129430601066,0.0,0.9179669057215516
6406.0,0.0508,-0.022,0.9136,0,0,0,-0.6160362609832697,-1.4831288825216382,0.0,0.915275696170285
6422.0,0.0493,-0.0216,0.9139,0,0,0,-0.6296271839371443,-1.5146643395395796,0.0,0.9154836208256267
6437.0,0.0497,-0.0236,0.9148,0,0,0,-0.6433058754157728,-1.54566865494152,0.0,0.9164529938845745
6453.0,0.0509,-0.0231,0.9136,0,0,0,-0.6569755624137115,-1.5763002605453236,0.0,0.9153083524146384
6469.0,0.05,-0.0215,0.9178,0,0,0,-0.6703982379262036,-1.60640146114329,0.0,0.9194123612395039
6484.0,0.0497,-0.0198,0.9166,0,0,0,-0.6833674881115601,-1.6359452613799645,0.0,0.9181599479393555
6501.0,0.0486,-0.0189,0.9183,0,0,0,-0.6957938899190768,-1.6647897518255512,0.0,0.9197793539757239
6516.0,0.0471,-0.0221,0.9165,0,0,0,-0.7081214338078317,-1.6927848143963085,0.0,0.9179755279962533
6532.0,0.0511,-0.0209,0.9215,0,0,0,-0.7201724891026843,-1.7204399701275843,0.0,0.9231523547064158
6548.0,0.0487,-0.0193,0.916,0,0,0,-0.7317720347173724,-1.747477630915389,0.0,0.9174966920921296
6563.0,0.0469,-0.0189,0.9119,0,0,0,-0.7429119698069618,-1.7737195254239193,0.0,0.9133008430960743
6580.0,0.0499,-0.0201,0.9137,0,0,0,-0.7537684050814393,-1.7995690980838512,0.0,0.9152823116394198
6595.0,0.0504,-0.0206,0.9148,0,0,0,-0.7644123397613042,-1.825076017787291,0.0,0.9164188780246727
6610.0,0.0474,-0.0227,0.9143,0,0,0,-0.7751116866087423,-1.8498587756864184,0.0,0.9158092268589567
6627.0,0.0458,-0.0181,0.9159,0,0,0,-0.7852597610948747,-1.873742889952195,0.0,0.9172230154111922
6642.0,0.0508,-0.0206,0.9159,0,0,0,-0.7952128039913277,-1.8974105240321073,0.0,0.9175389964464726
6658.0,0.0492,-0.0212,0.9159,0,0,0,-0.8050490934779413,-1.9206402403750613,0.0,0.9174654707399076
6674.0,0.048,-0.0184,0.9141,0,0,0,-0.8144182169671655,-1.9432995077720239,0.0,0.9155443025872642
6689.0,0.0515,-0.0211,0.9156,0,0,0,-0.8236890992689399,-1.9658371016776244,0.0,0.9172899323550869
6706.0,0.0482,-0.0199,0.9158,0,0,0,-0.8327048329367254,-1.9878091450544415,0.0,0.9172834294807685
6721.0,0.0485,-0.0204,0.9163,0,0,0,-0.8415385173688844,-2.009272532368892,0.0,0.9178094028718599
6736.0,0.05,-0.0214,0.9186,0,0,0,-0.8503122255543659,-2.0304161558328717,0.0,0.920208628518555
6753.0,0.048,-0.019,0.9159,0,0,0,-0.8587236076264544,-2.0510039830909452,0.0,0.9173536995074474
6768.0,0.0508,-0.0203,0.9131,0,0,0,-0.8669682441663391,-2.071428455656204,0.0,0.914737306553089
6785.0,0.0497,-0.0189,0.9174,0,0,0,-0.8748627603982227,-2.0915019982787784,0.0,0.9189396389317418
6800.0,0.0508,-0.0195,0.9137,0,0,0,-0.8825176192818909,-2.1113879450439232,0.0,0.9153188406233097
6815.0,0.0488,-0.0204,0.9172,0,0,0,-0.890048896245817,-2.1307956015277356,0.0,0.9187238105110807
6832.0,0.05,-0.0231,0.9138,0,0,0,-0.8978025168479695,-2.1499151809495016,0.0,0.9154583824511084
6847.0,0.0481,-0.0199,0.9156,0,0,0,-0.9053323695688416,-2.168493238527033,0.0,0.9170785026375877
6862.0,0.0471,-0.0237,0.915,0,0,0,-0.9131263057964262,-2.186435730108026,0.0,0.9165179212650455
6879.0,0.0486,-0.0227,0.9141,0,0,0,-0.9210150319154231,-2.2039749642994018,0.0,0.915672463274942
6894.0,0.0494,-0.0177,0.9155,0,0,0,-0.9283428224098801,-2.2212139473084385,0.0,0.917002671751833
6910.0,0.0487,-0.0197,0.9131,0,0,0,-0.9354178982197491,-2.238082293421468,0.0,0.9146099660511031
6926.0,0.0504,-0.0201,0.9175,0,0,0,-0.9422933652536934,-2.2547727940471294,0.0,0.9191030518935295
6941.0,0.047,-0.0197,0.9165,0,0,0,-0.9489323683094554,-2.270855354477295,0.0,0.9179157586619809
6958.0,0.0476,-0.0206,0.9169,0,0,0,-0.9554607714277712,-2.2864418153911092,0.0,0.91836579313474
6973.0,0.0499,-0.0206,0.913,0,0,0,-0.9618890632291973,-2.301872566735486,0.0,0.9145946479178632
6989.0,0.05,-0.0173,0.9156,0,0,0,-0.9677966594156109,-2.317130300924363,0.0,0.9171273902790168
7005.0,0.0509,-0.0215,0.9125,0,0,0,-0.973766357214725,-2.332338051078021,0.0,0.9141713789000397
7020.0,0.0472,-0.02,0.9121,0,0,0,-0.979593113716502,-2.3470119979407067,0.0,0.9135394080169722
7036.0,0.0487,-0.022,0.9164,0,0,0,-0.9855200627282301,-2.3613443067620015,0.0,0.917956780028341
7052.0,0.0492,-0.0226,0.9149,0,0,0,-0.9916025890764977,-2.3754191006678886,0.0,0.9165006328421166
7067.0,0.0491,-0.0199,0.917,0,0,0,-0.9974668097019528,-2.3892120859177304,0.0,0.918529161213731
7084.0,0.049,-0.0182,0.9169,0,0,0,-1.0029146738906487,-2.4027171153471394,0.0,0.9183887248872343
7099.0,0.0477,-0.0216,0.9167,0,0,0,-1.0084100148331847,-2.415780239189357,0.0,0.9181942822736373
7115.0,0.0483,-0.0222,0.9148,0,0,0,-1.0140163912792188,-2.4285150419933212,0.0,0.9163431507901393
7131.0,0.0494,-0.0195,0.9136,0,0,0,-1.0193753431095534,-2.441080103513591,0.0,0.9151423769009934
7146.0,0.0481,-0.0199,0.9163,0,0,0,-1.024547972972533,-2.4532900446709847,0.0,0.9177773749662823
7162.0,0.0497,-0.0192,0.918,0,0,0,-1.0294535420332855,-2.465350755638582,0.0,0.9195448493684253
7178.0,0.0502,-0.0198,0.916,0,0,0,-1.03419420316349,-2.477331416725688,0.0,0.9175881864976249
7194.0,0.0477,-0.0216,0.9141,0,0,0,-1.0390104099416475,-2.488918193812035,0.0,0.9155985255558247
7209.0,0.0516,-0.0179,0.9138,0,0,0,-1.0434216015103996,-2.500623199464499,0.0,0.9154307237579477
7225.0,0.0485,-0.0215,0.9133,0,0,0,-1.0479183927014748,-2.5120254808743505,0.0,0.9148395433080055
7241.0,0.051,-0.0208,0.9152,0,0,0,-1.0523886160389146,-2.523437362425151,0.0,0.9168558665351932
7257.0,0.0496,-0.0192,0.9161,0,0,0,-1.0566242331238567,-2.534654027921298,0.0,0.9176426374139336
7272.0,0.0485,-0.0229,0.9124,0,0,0,-1.0611172923596806,-2.5455636121200556,0.0,0.9139750653053944
7288.0,0.0488,-0.0179,0.9153,0,0,0,-1.0651953861355088,-2.556198487163843,0.0,0.9167747487796553
7304.0,0.0498,-0.0223,0.9172,0,0,0,-1.069443876875046,-2.5666819088016184,0.0,0.9188216203377019
7320.0,0.0498,-0.0225,0.9176,0,0,0,-1.073857916368664,-2.5770080668279856,0.0,0.9192257883675805
7335.0,0.048,-0.0181,0.911,0,0,0,-1.0778780434005066,-2.586994490910706,0.0,0.9124432091916735
7351.0,0.0493,-0.0225,0.9165,0,0,0,-1.0820770246880682,-2.596786664192998,0.0,0.9181007515518109
7367.0,0.0505,-0.0216,0.9127,0,0,0,-1.0863233551243654,-2.6065632980862823,0.0,0.9143511907358134
7383.0,0.0483,-0.0222,0.9165,0,0,0,-1.090667572984115,-2.616006403850816,0.0,0.9180402932333634
7399.0,0.0469,-0.0203,0.9182,0,0,0,-1.0948473537907808,-2.624950343262301,0.0,0.919621085012735
7414.0,0.0493,-0.0203,0.9139,0,0,0,-1.0988855619728515,-2.6337645406032055,0.0,0.9154538710388417
7430.0,0.0504,-0.0208,0.9124,0,0,0,-1.1028573739995833,-2.6425941033908598,0.0,0.9140276582248482
7446.0,0.0507,-0.0195,0.9114,0,0,0,-1.1066029100964914,-2.65146386739686,0.0,0.9130173601854458
7461.0,0.0516,-0.0204,0.9125,0,0,0,-1.1102506363757254,-2.6604565149637533,0.0,0.9141854133598939
7478.0,0.0486,-0.0193,0.9154,0,0,0,-1.113659535766595,-2.669145135556356,0.0,0.916892365547887
7493.0,0.0508,-0.0198,0.9171,0,0,0,-1.1169084666109799,-2.6778115829923106,0.0,0.9187192661526153
7508.0,0.0497,-0.0215,0.9115,0,0,0,-1.1202381656867817,-2.6863416306577284,0.0,0.9131071076275772
7525.0,0.0486,-0.0216,0.9167,0,0,0,-1.1236305820515775,-2.6945616784883817,0.0,0.9182414769547278
7540.0,0.0493,-0.0192,0.9103,0,0,0,-1.1267892155613823,-2.7026226038751298,0.0,0.9118361804622582
7556.0,0.0502,-0.0216,0.9138,0,0,0,-1.1300255889900943,-2.710615876311503,0.0,0.9154327064290416
7572.0,0.0525,-0.0201,0.9127,0,0,0,-1.1331391373158666,-2.7188284619954186,0.0,0.9144296309722252
7587.0,0.0476,-0.0215,0.9161,0,0,0,-1.1363044779962845,-2.7265825002752027,0.0,0.917587717877697
7604.0,0.051,-0.0168,0.9169,0,0,0,-1.138918572705667,-2.7343360863401376,0.0,0.9184709304055301
7619.0,0.0474,-0.0168,0.915,0,0,0,-1.141047168866681,-2.7416368845105943,0.0,0.9163809251615838
7634.0,0.0502,-0.022,0.9133,0,0,0,-1.14339783808172,-2.748885055307113,0.0,0.9149431293801817
7651.0,0.0472,-0.0195,0.9143,0,0,0,-1.1456247259058214,-2.755690695303126,0.0,0.9157251661934381
7666.0,0.0496,-0.0208,0.9142,0,0,0,-1.1479005007187206,-2.762392967379255,0.0,0.9157807816284419
7683.0,0.0499,-0.0205,0.9136,0,0,0,-1.1501789276415249,-2.7690322060334727,0.0,0.9151913570396084
7698.0,0.0485,-0.0209,0.9153,0,0,0,-1.152500697152269,-2.7754161520745573,0.0,0.9168223110286966
7713.0,0.051,-0.0188,0.9177,0,0,0,-1.1545864577106957,-2.7818583095420206,0.0,0.9193082888781108
7730.0,0.0474,-0.0171,0.9153,0,0,0,-1.156254521272264,-2.787905435142054,0.0,0.9166860204017513
7745.0,0.0477,-0.0204,0.9171,0,0,0,-1.1579585182655545,-2.7936174685740327,0.0,0.9185661979411175
7760.0,0.0491,-0.0205,0.9144,0,0,0,-1.1597103896385592,-2.7992154990533984,0.0,0.915946734259149
7777.0,0.049,-0.021,0.9154,0,0,0,-1.161560782655226,-2.8046825901442642,0.0,0.9169510128681903
7792.0,0.0474,-0.0183,0.9141,0,0,0,-1.1631606326229267,-2.809832149199643,0.0,0.9155110376177886
7809.0,0.0488,-0.0227,0.9131,0,0,0,-1.1650889003935356,-2.8148728524430626,0.0,0.9146848309663828
7824.0,0.0502,-0.0206,0.9117,0,0,0,-1.1670441261172424,-2.8199917566498,0.0,0.9133133580540689
7839.0,0.0491,-0.0203,0.9127,0,0,0,-1.1689791276700272,-2.8250252976884234,0.0,0.9142451476491411
7856.0,0.049,-0.0228,0.9106,0,0,0,-1.1712111018914435,-2.8299750770120196,0.0,0.9122023898236619
7871.0,0.0503,-0.0225,0.9141,0,0,0,-1.1736531357928863,-2.8349801281414226,0.0,0.9157593297368037
7887.0,0.0505,-0.0193,0.9172,0,0,0,-1.1758663890013572,-2.840028011019975,0.0,0.9187919133296722
7903.0,0.051,-0.0195,0.9171,0,0,0,-1.177898756588862,-2.8451666295288134,0.0,0.9187239302423771
7918.0,0.0469,-0.0221,0.916,0,0,0,-1.180096352340216,-2.8498701918923635,0.0,0.9174660865666916
7934.0,0.048,-0.0215,0.9155,0,0,0,-1.182361460796308,-2.8543214567692297,0.0,0.917009541935088
7950.0,0.049,-0.0205,0.9161,0,0,0,-1.1845547117497925,-2.858662194913999,0.0,0.91763852360284
7965.0,0.0485,-0.02,0.9141,0,0,0,-1.1866233961974517,-2.8628477203000657,0.0,0.915604204883311
7982.0,0.0496,-0.0211,0.9191,0,0,0,-1.188701366928632,-2.8669918732471826,0.0,0.9206791949425164
7997.0,0.049,-0.0186,0.9156,0,0,0,-1.190480886982977,-2.8710397589162757,0.0,0.9170988605379465
8013.0,0.0475,-0.0221,0.9164,0,0,0,-1.1924289449084764,-2.8748020496296847,0.0,0.9178963013325634
8029.0,0.0465,-0.0216,0.9148,0,0,0,-1.1944639106967667,-2.878190765431543,0.0,0.9162356956591464
8044.0,0.0494,-0.024,0.9156,0,0,0,-1.1968686425426753,-2.8815999067404174,0.0,0.9172457249832239
8060.0,0.0461,-0.0179,0.9189,0,0,0,-1.198823718188981,-2.884586482377611,0.0,0.9202297702204597
8076.0,0.0504,-0.0192,0.9137,0,0,0,-1.20055476323446,-2.8877655062965433,0.0,0.9152903856154068
8092.0,0.048,-0.0204,0.9156,0,0,0,-1.2022296671519277,-2.8907957966541744,0.0,0.9170842491287264
8108.0,0.0497,-0.0197,0.9185,0,0,0,-1.2037559306470542,-2.893881770426462,0.0,0.920054579902736
8123.0,0.0483,-0.019,0.9153,0,0,0,-1.2050697570856284,-2.8968572069804064,0.0,0.9167704074630681
8139.0,0.0498,-0.0226,0.9125,0,0,0,-1.2066508139639185,-2.8999349930409926,0.0,0.9141373255698511
8155.0,0.0519,-0.0247,0.9183,0,0,0,-1.2087101551158357,-2.9033203666923537,0.0,0.9200970546632568
8170.0,0.0496,-0.0215,0.9152,0,0,0,-1.210796604051497,-2.906703905372263,0.0,0.9167952061392992
8186.0,0.0498,-0.0203,0.9131,0,0,0,-1.212758862872306,-2.9101181118550707,0.0,0.9146823164356027
8202.0,0.0515,-0.0175,0.9146,0,0,0,-1.2142532522659628,-2.9137547117964986,0.0,0.9162159461611656
8218.0,0.0481,-0.0201,0.912,0,0,0,-1.2156646030038154,-2.917173275610898,0.0,0.913488708195126
8233.0,0.0441,-0.0212,0.9148,0,0,0,-1.2171301299400388,-2.919874273627331,0.0,0.9161076847183414
8249.0,0.0474,-0.0221,0.9174,0,0,0,-1.218745164899232,-2.922331799101291,0.0,0.9188895091358917
8265.0,0.0496,-0.019,0.9161,0,0,0,-1.220104766804026,-2.924853004243961,0.0,0.9176384745639211
8281.0,0.0488,-0.0175,0.9131,0,0,0,-1.2210573790615067,-2.927345400221613,0.0,0.9145705549600862
8297.0,0.0483,-0.021,0.9106,0,0,0,-1.2220935160817072,-2.9297615891118656,0.0,0.9121218394490946
8312.0,0.0507,-0.0212,0.9133,0,0,0,-1.2232184723343074,-2.93238762780432,0.0,0.9149518129388017
8328.0,0.0502,-0.0216,0.9158,0,0,0,-1.224462640831252,-2.935114332616807,0.0,0.9174291471279947
8344.0,0.048,-0.0215,0.9152,0,0,0,-1.2257989468793897,-2.9376535363486234,0.0,0.9167100359437547
8359.0,0.05,-0.0214,0.9137,0,0,0,-1.2272052657290142,-2.940282173231699,0.0,0.9153172400867362
8375.0,0.0474,-0.0227,0.9196,0,0,0,-1.2288166934579139,-2.94262022550036,0.0,0.921100542829066
8391.0,0.0486,-0.0197,0.9137,0,0,0,-1.230247352744297,-2.9448866054503466,0.0,0.9152036603947779
8407.0,0.0492,-0.0201,0.9136,0,0,0,-1.2315658724625542,-2.94716084088573,0.0,0.9151445842051407
8423.0,0.05,-0.022,0.9158,0,0,0,-1.2330140197033757,-2.9495226891499144,0.0,0.9174277301237411
8438.0,0.0479,-0.0193,0.9137,0,0,0,-1.2342423334868933,-2.951708832412923,0.0,0.9151582322199806
8454.0,0.0498,-0.0227,0.9143,0,0,0,-1.235697380894679,-2.953968941628759,0.0,0.9159365807740184
8470.0,0.0514,-0.0194,0.9165,0,0,0,-1.2369304445189864,-2.9564748620267016,0.0,0.9181451791519684
8485.0,0.0503,-0.0184,0.9161,0,0,0,-1.2378416202126028,-2.959057817744269,0.0,0.9176643504026949
8502.0,0.0509,-0.022,0.9164,0,0,0,-1.2389160982638088,-2.961776409491539,0.0,0.9180761242947123
8517.0,0.0491,-0.0205,0.9164,0,0,0,-1.2399452604742012,-2.9643844499707708,0.0,0.9179433642660096
8532.0,0.049,-0.021,0.9122,0,0,0,-1.2410067105546887,-2.9669056027188603,0.0,0.9137564445737169
8549.0,0.0491,-0.0194,0.9144,0,0,0,-1.2418883198696677,-2.9693427202391867,0.0,0.9159227751289952
8564.0,0.048,-0.0227,0.9204,0,0,0,-1.2430052570169032,-2.971523160693767,0.0,0.9219302847829656
8580.0,0.0496,-0.0195,0.9144,0,0,0,-1.2439443125023228,-2.973712937484394,0.0,0.9159518382535187
8596.0,0.0491,-0.02,0.9131,0,0,0,-1.2447907620069365,-2.9758528954554313,0.0,0.9146378627631814
8611.0,0.0463,-0.0212,0.9121,0,0,0,-1.2457070447250917,-2.9776016345014518,0.0,0.9135204102810184
8628.0,0.0482,-0.0236,0.9155,0,0,0,-1.2469732772016089,-2.9792163045194178,0.0,0.9170716711359042
8643.0,0.05,-0.0217,0.9153,0,0,0,-1.248308387277262,-2.9809356381190155,0.0,0.9169214688292558
8658.0,0.0507,-0.0189,0.9172,0,0,0,-1.249346095387142,-2.9828185037468726,0.0,0.9187946125222981
8675.0,0.048,-0.017,0.9104,0,0,0,-1.2499014623684177,-2.984550239855631,0.0,0.9118229872074951
8690.0,0.0488,-0.0205,0.915,0,0,0,-1.2504547765313838,-2.986214286102912,0.0,0.9165296994642346
8707.0,0.0486,-0.0183,0.9114,0,0,0,-1.250740059574719,-2.9878144092972283,0.0,0.9128783106197671
8722.0,0.0475,-0.0187,0.915,0,0,0,-1.2508285606552594,-2.9891933976112957,0.0,0.9164229045588069
8737.0,0.0498,-0.0232,0.9154,0,0,0,-1.251304686356425,-2.9906593127623617,0.0,0.917047130740836
8754.0,0.0496,-0.0204,0.9183,0,0,0,-1.2517635165240515,-2.9921545566960748,0.0,0.9198647781059996
8769.0,0.0497,-0.0211,0.9156,0,0,0,-1.252301156506391,-2.9937031968038528,0.0,0.9171906344920885
8785.0,0.0505,-0.0184,0.9087,0,0,0,-1.25258867537055,-2.995442089567786,0.0,0.9102881411948636
8801.0,0.0475,-0.0206,0.918,0,0,0,-1.252904793345681,-2.996908101424513,0.0,0.9194588680305389
8816.0,0.0448,-0.0172,0.9105,0,0,0,-1.2528413244728747,-2.9978432945697473,0.0,0.9117637468116397
8833.0,0.0519,-0.0214,0.9202,0,0,0,-1.2529408503847579,-2.999130860462898,0.0,0.9219108470996531
8848.0,0.054,-0.0184,0.9146,0,0,0,-1.2528238396510236,-3.001026117830893,0.0,0.9163774986325232
8863.0,0.0508,-0.0209,0.9161,0,0,0,-1.2528249838745997,-3.0030437712459817,0.0,0.9177454222168585
8880.0,0.0482,-0.0234,0.9122,0,0,0,-1.253253971351767,-3.004866998548703,0.0,0.913772203560603
8895.0,0.0487,-0.0214,0.9116,0,0,0,-1.2538111487114756,-3.0065815347506595,0.0,0.9131507049770043
8911.0,0.0553,-0.0226,0.9161,0,0,0,-1.254616778685321,-3.0089909355822373,0.0,0.9180457831720594
8927.0,0.0497,-0.0206,0.9119,0,0,0,-1.255402492239283,-3.0113373336651077,0.0,0.913485664912154
8942.0,0.0488,-0.0204,0.9149,0,0,0,-1.2561357282765804,-3.013490536084431,0.0,0.9164276348954128
8958.0,0.0498,-0.0229,0.9104,0,0,0,-1.257146548714887,-3.0156246443455568,0.0,0.9120485787500576
8974.0,0.0521,-0.0219,0.9153,0,0,0,-1.2582608189219564,-3.0179917348689016,0.0,0.9170431342090731
8990.0,0.052,-0.021,0.9154,0,0,0,-1.2593512173304688,-3.020546323080538,0.0,0.9171162194618521
9006.0,0.0317,-0.0239,0.9152,0,0,-0.5538416666666666,-1.2607848446800016,-3.020725718830402,-0.004430733333333332,0.9160606639300697
9021.0,0.0233,-0.0232,0.9194,0,0.5290320000000002,-2.7599416666666663,-1.2624196244507035,-3.0099567588591136,-0.02513029583333333,0.9199877662230079
9037.0,0.0481,-0.022,0.9176,0,0.5519320000000001,-3.9583416666666666,-1.2640799409773953,-2.9987854771214764,-0.056797029166666665,0.9191231527929213
9053.0,0.0549,-0.0193,0.9139,0,0,-3.576741666666666,-1.2654317659240424,-2.9975984081725127,-0.08541096249999999,0.9157508995354577
9069.0,0.0625,-0.016,0.916,0,0,-2.561441666666666,-1.266089103806108,-2.998366463394075,-0.10590249583333332,0.9182691598872305
9084.0,0.0605,-0.0177,0.9165,0,0,-1.1721416666666664,-1.2663440890531994,-3.0006036668198313,-0.11469355833333332,0.9186652219388737
9100.0,0.0518,-0.0205,0.9122,0,0,0,-1.266606926591966,-3.0030750643800905,-0.11469355833333332,0.9138995185467602
9116.0,0.0535,-0.0181,0.9188,0,0,0,-1.2665576469716306,-3.005915275263559,-0.11469355833333332,0.9205342470543939
9132.0,0.0621,-0.0176,0.9189,0,0,0,-1.266169384108122,-3.010147001750526,-0.11469355833333332,0.9211641438961897
9148.0,0.0646,-0.0214,0.9321,0,0,-0.8667416666666665,-1.2659211276076745,-3.0158134455585413,-0.12162749166666666,0.9345809381749662
9163.0,0.0708,-0.0255,0.929,0.9551120000000008,0.6206320000000001,-1.4774416666666668,-1.2522740864580513,-3.0143993139811225,-0.13270830416666665,0.932042858456627
9179.0,0.0226,-0.0225,0.88,0.5200120000000008,0.8419320000000001,-1.0041416666666665,-1.2451308231173734,-3.0052264959300956,-0.14074143749999998,0.8805776569956791
9195.0,-0.0063,-0.0331,0.921,0,0,0,-1.2478078418122607,-3.0021915455915416,-0.14074143749999998,0.9216161348413991
9210.0,0.0349,-0.0258,0.8949,0,-0.5931679999999999,0,-1.2509626991078304,-3.006722018057203,-0.14074143749999998,0.8959518179009405
9226.0,0.0643,-0.0112,0.9199,0,0,0,-1.2526250052035284,-3.004872080211791,-0.14074143749999998,0.9222125243131326
9242.0,0.0428,-0.0184,0.9115,0,0,0,-1.2538972023912918,-3.0026086009590145,-0.14074143749999998,0.9126897884823737
9257.0,0.0199,-0.0253,0.8989,0,0,0,-1.2557269593507114,-2.9971939947349706,-0.14074143749999998,0.8994761308672955
9274.0,0.0386,-0.0232,0.9332,-0.6784879999999993,-0.5931679999999999,0.6370583333333334,-1.2689819892298648,-3.001028420113113,-0.13532644166666666,0.9342860589776559
9289.0,0.0706,-0.0076,0.924,0,0,-0.5461416666666665,-1.2688831353241556,-2.9982901043573076,-0.13942250416666666,0.9267244034771072
9305.0,0.0806,-0.017,0.9221,0,0,-1.8591416666666667,-1.268360308090256,-2.9999071091154406,-0.1542956375,0.9257719859663069
9321.0,0.0555,-0.0245,0.9047,0,0.7274320000000001,-1.2637416666666665,-1.2684527175142253,-2.9909391150038815,-0.16440557083333332,0.9067318181248522
9336.0,0.0184,-0.0316,0.9104,0,0,0,-1.2699663715841278,-2.9896508105765682,-0.16440557083333332,0.9111340625835476
9353.0,0.0447,-0.024,0.9124,0,-0.5091679999999998,0,-1.2717707925393267,-2.9966280072636162,-0.16440557083333332,0.9138095261048661
9368.0,0.0728,-0.0112,0.9196,0,0,0,-1.2722018718372867,-2.9982291451076355,-0.16440557083333332,0.9225450883290204
9383.0,0.0643,-0.0135,0.9237,0,0,0,-1.2716998076933768,-3.0016264433034485,-0.16440557083333332,0.9260337088896926
9400.0,0.0319,-0.0238,0.9092,0,0,0,-1.2717076309083273,-3.0026551335516936,-0.16440557083333332,0.9100707060443161
9415.0,0.0343,-0.022,0.9109,0,0,0,-1.2719354900032867,-3.001878434411146,-0.16440557083333332,0.9118110001529922
9432.0,0.0513,-0.0156,0.9167,0,0,0,-1.271538083377375,-3.0015967733048763,-0.16440557083333332,0.9182668130777677
9447.0,0.0637,-0.0154,0.9227,0,0,0,-1.2705475042180576,-3.0032602989086943,-0.16440557083333332,0.9250243996781922
9462.0,0.0493,-0.0215,0.9164,0,0,0,-1.269817024261022,-3.004879798034025,-0.16440557083333332,0.9179769604951967
9479.0,0.0417,-0.0198,0.912,0,0,0,-1.2691179706818054,-3.005538037635571,-0.16440557083333332,0.9131675257037999
9494.0,0.0449,-0.0199,0.9114,0,0,0,-1.2684616971291556,-3.0057500470539487,-0.16440557083333332,0.9127222907325097
9509.0,0.0535,-0.0208,0.9187,0,0,0,-1.267936049202045,-3.006593727354677,-0.16440557083333332,0.9204914882822111
9526.0,0.0511,-0.0183,0.9154,0,0,0,-1.2672234866009768,-3.0077149027034933,-0.16440557083333332,0.9170077753214527
9541.0,0.0494,-0.02,0.917,0,0,0,-1.2665558691401695,-3.0088556577277066,-0.16440557083333332,0.9185474184820293
9558.0,0.0483,-0.0203,0.9144,0,0,0,-1.2659738571718828,-3.0098914617725665,-0.16440557083333332,0.915899743421735
9573.0,0.0468,-0.0208,0.9133,0,0,0,-1.2655342072720168,-3.010652654288624,-0.16440557083333332,0.9147348085647555
9588.0,0.0453,-0.0216,0.9176,0,0,0,-1.2653095202404672,-3.0109542912306875,-0.16440557083333332,0.9189713869321503
9605.0,0.0485,-0.0199,0.9106,0,0,0,-1.2650810772050067,-3.011295776450191,-0.16440557083333332,0.9121077896827764
9620.0,0.0525,-0.0184,0.916,0,0,0,-1.2646469475195679,-3.012135591571413,-0.16440557083333332,0.9176877519069326
9636.0,0.0527,-0.0194,0.9109,0,0,0,-1.2641710544498643,-3.013472355749368,-0.16440557083333332,0.9126294209590221
9652.0,0.0483,-0.0204,0.917,0,0,0,-1.263768431208272,-3.0146543100203664,-0.16440557083333332,0.9184977136607364
9667.0,0.0448,-0.0217,0.9141,0,0,0,-1.2636021376682884,-3.015279632663594,-0.16440557083333332,0.9154543899070013
9683.0,0.0485,-0.0201,0.9152,0,0,0,-1.2634410411021597,-3.015867574168488,-0.16440557083333332,0.9167045870944467
9699.0,0.0522,-0.0171,0.9185,0,0,0,-1.2629003653026925,-3.016861429807031,-0.16440557083333332,0.9201410218004629
9715.0,0.0509,-0.019,0.9146,0,0,0,-1.2622742593540401,-3.0180749367239943,-0.16440557083333332,0.9162122952678599
9731.0,0.0477,-0.0229,0.9137,0,0,0,-1.2620644153860077,-3.0190862266201806,-0.16440557083333332,0.9152307851028613
9746.0,0.0431,-0.0228,0.911,0,0,0,-1.2622178887174849,-3.019360404688733,-0.16440557083333332,0.9123039241393188
9762.0,0.048,-0.0211,0.9187,0,0,0,-1.2624569784778266,-3.0195448835909153,-0.16440557083333332,0.9201950336749269
9778.0,0.0558,-0.0198,0.9139,0,0,0,-1.2626207347666618,-3.0206558215787083,-0.16440557083333332,0.9158159695047908
9793.0,0.0491,-0.02,0.9188,0,0,0,-1.2627301601024672,-3.0217121032101426,-0.16440557083333332,0.9203283381489457
9809.0,0.0425,-0.0198,0.9191,0,0,0,-1.2627666445381955,-3.0218924553674573,-0.16440557083333332,0.9202951157101726
9825.0,0.0422,-0.0232,0.9117,0,0,0,-1.2631840239715968,-3.0213112691545514,-0.16440557083333332,0.9129709579170632
9841.0,0.0299,-0.0208,0.9132,0,0,0,-1.2636343191892416,-3.018512964428291,-0.16440557083333332,0.9139260856327497
9857.0,-0.0028,-0.0243,0.9277,0,1.872532,-5.370541666666666,-1.264513351900863,-2.9802339269741553,-0.20736990416666665,0.9280224242980338
9872.0,0.0476,-0.0194,0.9318,0,1.567132,-7.660641666666666,-1.2651384268518044,-2.9497592429660857,-0.2648247166666666,0.9332166736615886
9888.0,0.0795,-0.0172,0.9106,0,0.7656320000000001,-5.591941666666666,-1.2653195230491532,-2.935665026376732,-0.30956025,0.9142256012604328
9904.0,0.0778,-0.0137,0.9146,0,0,-1.5079416666666667,-1.2646605872902734,-2.9378893882797117,-0.3216237833333333,0.9180052777626063
9920.0,0.0591,-0.0188,0.9165,0,0,0,-1.2638955972309138,-2.941354906890177,-0.3216237833333333,0.9185959394641368
9935.0,0.0548,-0.021,0.9142,0,0,0,-1.2633198156529588,-2.945388069297375,-0.3216237833333333,0.916081699413322
9951.0,0.0474,-0.0219,0.9172,0,0,0,-1.2630174183910852,-2.948971093356825,-0.3216237833333333,0.9186850439622929
9967.0,0.041,-0.0193,0.9132,0,0,0,-1.2626441052237278,-2.951378990668695,-0.3216237833333333,0.9143236461997469
9982.0,0.0472,-0.0232,0.916,0,0,0,-1.2626872838618681,-2.9534995930316943,-0.3216237833333333,0.9175086266624418
9999.0,0.0548,-0.0173,0.9194,0,0,0,-1.2623509336398369,-2.9562874112151927,-0.3216237833333333,0.9211941652008007
10014.0,0.0565,-0.0157,0.9188,0,0,0,-1.2614825027230554,-2.959873614784996,-0.3216237833333333,0.9206694194986602
10030.0,0.0453,-0.0209,0.9099,0,0,0,-1.2608206783092473,-2.962821220481873,-0.3216237833333333,0.9112666514253663
10046.0,0.0364,-0.0221,0.9161,0,0,0,-1.2604770608237015,-2.964047202974125,-0.3216237833333333,0.9170891886834126
10061.0,-0.0557,-0.0503,0.8918,0,-0.7992680000000001,-2.553841666666667,-1.2640250352562465,-2.964132092950936,-0.3407775958333333,0.8949524121426793
10078.0,0.123,0.0182,0.9448,0,0,-1.7217416666666667,-1.262257795387277,-2.962907761462158,-0.35541239999999996,0.9529466301949968
10093.0,0.1002,-0.0564,0.9315,0,0,1.7668583333333334,-1.2651585130175034,-2.9682985107572972,-0.34216096249999994,0.9385697896267491
10109.0,0.1239,-0.1067,0.9081,0,-4.310668,10.736258333333332,-1.2784955091027081,-3.0502112384451845,-0.2562708958333333,0.9227034789140008
10125.0,0.0361,-0.03,0.9269,-0.5563879999999992,-2.722968,14.919458333333333,-1.3001304881667917,-3.1026587536351355,-0.13691522916666662,0.9280877221469962
10140.0,0.0416,0.0623,0.9211,0,-2.0893680000000003,15.392758333333333,-1.3010027848636603,-3.140167363462782,-0.021469541666666633,0.9241412554366351
10157.0,-0.0967,0.0402,0.9056,0.5200120000000008,-0.6313679999999997,5.232458333333334,-1.2855464960381955,-3.1378948488186054,0.023006354166666708,0.9116349543539892
10172.0,0.0475,-0.0232,0.9006,0,2.551932,0,-1.2800711199974486,-3.0886562892459732,0.023006354166666708,0.9021501260876705
10188.0,0.0474,-0.0145,0.9075,-1.235687999999999,-0.5931679999999999,0,-1.2938871154267313,-3.0880866864736225,0.023006354166666708,0.9088527163407721
10204.0,0.0686,-0.019,0.8879,0,0,0,-1.2884815169565196,-3.0817824758541255,0.023006354166666708,0.8907487692946873
10219.0,0.0168,-0.0211,0.9269,0,-2.241968,0.7286583333333334,-1.2837531118561343,-3.1050451199370537,0.028471291666666707,0.9272923271547112
10235.0,0.0444,-0.026,0.924,0,0.895432,0,-1.2802468563416525,-3.081156390233196,0.028471291666666707,0.9254314453269892
10251.0,0.0518,-0.0179,0.9174,0,0,0,-1.276826045513258,-3.0730280007643946,0.028471291666666707,0.9190355869061873
10267.0,0.0472,-0.0199,0.9066,0,0,0,-1.273764459373397,-3.0656684289831846,0.028471291666666707,0.9080459294551129
10283.0,0.0532,-0.0206,0.9117,0,0,0,-1.2711005331739187,-3.0597228008834887,0.028471291666666707,0.9134831635011124
10299.0,0.0536,-0.0205,0.9058,0,0,0,-1.268795076469332,-3.0551231413566855,0.028471291666666707,0.9076160256407994
10314.0,0.0541,-0.0201,0.9166,0,0.681632,0,-1.2667330602443971,-3.0416960249987675,0.028471291666666707,0.918415145781035
10331.0,0.0483,-0.0212,0.9135,0,0.8496320000000002,0,-1.2650361916856945,-3.024686335299185,0.028471291666666707,0.9150216281596846
10346.0,0.052,-0.0204,0.905,0,3.9564320000000004,0,-1.2635862044952677,-2.9647850941292018,0.028471291666666707,0.9067222066322188
10361.0,0.0404,-0.0305,0.8794,-0.8005879999999992,-3.5702679999999996,0,-1.2754655775959007,-3.016130151384631,0.028471291666666707,0.8808557032794871
10378.0,-0.1204,0.0652,0.9219,0,5.445032,-3.9660416666666665,-1.2645875188943123,-2.9022413282646755,-0.005240062499999958,0.9320122370441282
10393.0,-0.1682,0.0875,0.934,0,10.292332000000002,-16.332441666666664,-1.2414534205735943,-2.7051430620169588,-0.12773337499999993,0.9530495737368545
10409.0,-0.059,0.078,0.8997,0,18.063332,-21.294241666666665,-1.2087636863729365,-2.3714258337056675,-0.29808730833333325,0.9050000497237556
10425.0,-0.0177,-0.0151,0.9794,-2.159387999999999,40.124432000000006,-19.446941666666664,-1.2133094334755106,-1.695870296360127,-0.4536628416666666,0.9796763036840281
10441.0,-0.0173,-0.0011,0.9414,-6.281587999999999,30.437331999999998,-18.706441666666667,-1.2830626848930184,-1.1834615276607203,-0.603314375,0.9415595891923145
10457.0,-0.0648,-0.0013,0.9971,-8.418987999999999,24.009932,-26.103441666666665,-1.385576667288722,-0.7742160161805834,-0.8121419083333332,0.9992042533936693
10473.0,-0.0209,-0.0026,0.9683,-14.166988,16.101532,-34.17214166666667,-1.5768868803557505,-0.4955355470178155,-1.0855190416666667,0.9685290186669681
10488.0,0.0168,-0.1124,0.9904,-17.541088,9.712232,-33.836241666666666,-1.814144993151651,-0.3353151330425852,-1.3392908541666666,0.9968992727452458
10505.0,0.014,-0.0597,1.0636,-21.785387999999998,0.895432,-33.37054166666667,-2.1577197540248583,-0.3086821387810199,-1.6229404583333333,1.0653661577129248
10520.0,-0.0104,-0.0181,1.165,-35.953288,9.109131999999999,-29.080541666666665,-2.6600982663725796,-0.1629697787883838,-1.8410445208333333,1.1651870107411944
10536.0,0.0011,-0.0093,1.1421,-54.724288,23.406831999999998,-26.111041666666665,-3.481104988930035,0.212165168488901,-2.0499328541666664,1.1421383935408176
10552.0,-0.0262,-0.0431,1.1189,-65.044888,25.086232,-21.653041666666667,-4.450644914143825,0.6085841924294485,-2.2231571874999996,1.120036276198231
10568.0,-0.0901,-0.0518,1.1624,-75.373188,14.971732,-21.889641666666666,-5.566369848794958,0.8477849619628041,-2.398274320833333,1.1670368503179325
10584.0,-0.0601,-0.0975,1.1278,-89.571588,13.223631999999998,-26.958341666666666,-6.890751731073335,1.0596614724883604,-2.6139410541666663,1.1336009438951609
10600.0,-0.0033,-0.1378,1.0771,-99.93038800000001,6.567132,-28.675941666666667,-8.36307712039923,1.1610542286141063,-2.8433485874999995,1.085884036165925
10615.0,-0.0035,-0.1191,0.9709,-106.983788,13.078631999999999,-28.118641666666665,-9.820887260026993,1.348239749881534,-3.0542383999999996,0.9781839653153184
10632.0,0.0121,-0.1578,0.8602,-107.182288,14.574832,-28.393441666666664,-11.475926422648568,1.5793265768819318,-3.295582654166666,0.8746378050370335
10648.0,-0.0176,-0.1696,0.7864,-103.327388,25.536632,-27.195041666666665,-12.9467421455877,1.9642174836056239,-3.5131429874999993,0.8046731510371152
10663.0,-0.0251,-0.229,0.7875,-95.174688,28.368631999999998,-27.683541666666667,-14.187473514982981,2.359678654804614,-3.720769549999999,0.8205042717743766
10680.0,-0.0242,-0.2307,0.7843,-85.235788,18.811432,-26.278941666666665,-15.443667451584874,2.6450654212575473,-3.944140554166666,0.8178842338619812
10695.0,0.0327,-0.2587,0.7495,-78.128888,8.353432,-22.668341666666667,-16.425100525197752,2.7285665419362592,-4.114153116666666,0.793564887076035
10712.0,0.0399,-0.2721,0.7257,-73.922788,8.895432,-16.920241666666666,-17.49247332447254,2.829687324880127,-4.257975170833332,0.776061150941084
10728.0,0.0065,-0.3085,0.6976,-66.991488,6.826732,-13.416341666666668,-18.38353788660738,2.8862038894345314,-4.365305904166666,0.7627976533786663
10743.0,0.0272,-0.3822,0.6599,-58.365488,9.162531999999999,-12.424041666666668,-19.099103539469105,2.965172032963189,-4.458486216666667,0.7630758088158739
10760.0,-0.0287,-0.3694,0.7375,-52.434188,25.971732,-11.324741666666668,-19.844552981271715,3.3442445553465254,-4.5547465208333335,0.8253401117115295
10775.0,-0.0552,-0.4036,0.8146,-49.083088000000004,26.460231999999998,-14.156841666666667,-20.451165956599144,3.6789177355584655,-4.660922833333333,0.9107761305611825
10791.0,-0.0345,-0.3768,0.8512,-50.701388,30.361031999999998,-19.011841666666665,-21.139708106097242,4.097386196227488,-4.813017566666667,0.9315094900214382
10807.0,0.0449,-0.369,0.8676,-53.678488,28.612932,-20.408741666666664,-21.877981198041212,4.472399356098938,-4.9762875,0.943878577996132
10823.0,0.0403,-0.3549,0.8903,-56.426588,13.727432,-15.836241666666668,-22.656952380735266,4.600240160578094,-5.102977433333333,0.9592769099691705
10839.0,0.0697,-0.4019,0.8242,-57.831188000000004,1.0251320000000002,-9.317141666666668,-23.461586565801067,4.516777805192274,-5.177514566666666,0.9196126032194208
10855.0,-0.0172,-0.4415,0.7755,-58.357888,-0.8679679999999999,-3.637741666666666,-24.282444972906962,4.408327543198749,-5.206616499999999,0.8925347836359097
10870.0,-0.0649,-0.4865,0.6937,-54.014388000000004,0.8343320000000001,-3.9889416666666664,-24.99665848672167,4.337267354461419,-5.236533562499999,0.8497728814218538
10887.0,-0.0585,-0.5164,0.673,-48.541088,10.994632,-7.2713416666666655,-25.74404391356416,4.44637362402788,-5.298339966666666,0.8503059508200563
10902.0,-0.0415,-0.4982,0.6697,-41.609788,15.361032000000002,-8.920241666666668,-26.30734413096545,4.600821692988236,-5.3652417791666664,0.8357174043897853
10918.0,-0.0067,-0.5033,0.6838,-34.426588,18.788532,-6.347641666666666,-26.812844303087626,4.820427327393695,-5.4160229125,0.8490808088751034
10934.0,-0.075,-0.506,0.7645,-32.953288,21.467931999999998,-4.195041666666667,-27.303751633271283,5.0869378974068455,-5.449583245833333,0.9198484929595743
10950.0,-0.1024,-0.5149,0.7396,-32.609788,16.154932,-5.5003416666666665,-27.7984761228612,5.2773380972117145,-5.493585979166666,0.9069817693867943
10966.0,-0.0897,-0.5303,0.6776,-28.861687999999997,12.132031999999999,-8.752241666666666,-28.24709847689787,5.410762337507129,-5.5636039125,0.8651045832730283
10982.0,-0.0504,-0.5253,0.6267,-20.319688,8.116731999999999,-7.408741666666667,-28.575960188443684,5.482147586961872,-5.622873845833333,0.8192881910536731
10997.0,-0.0717,-0.5177,0.6309,-10.701388,6.032832,-6.759941666666666,-28.756849876619928,5.520108798067577,-5.673573408333334,0.8192612464897874
11014.0,-0.0511,-0.5369,0.5796,3.5352120000000005,-1.0129679999999999,-6.7522416666666665,-28.741873784838287,5.45509500578842,-5.730967462500001,0.7917126877851587
11029.0,-0.0284,-0.5281,0.5494,21.848212000000004,-7.158067999999999,-7.027041666666666,-28.488145274136404,5.302795298334908,-5.783670275,0.7625854247230273
11045.0,-0.0276,-0.5258,0.5964,36.588712,-17.692368000000002,-5.591941666666666,-28.00454399816241,4.980577362818318,-5.828405808333334,0.7955629202017903
11061.0,-0.0181,-0.5023,0.5565,48.787212,-18.967168,-7.584341666666666,-27.355769428686013,4.642863994291039,-5.889080541666667,0.7498834242733999
11077.0,-0.0383,-0.4956,0.6389,61.642112,-12.135168,-8.088141666666667,-26.52614807633751,4.419906360200625,-5.953785675000001,0.8094933353647824
11092.0,-0.0847,-0.5068,0.8109,63.504712,-11.631367999999998,-7.622541666666666,-25.740857533372452,4.227646639350614,-6.0109547375000005,0.9599891353551873
11109.0,-0.1044,-0.4824,0.8553,61.107811999999996,-18.241968,-13.385841666666668,-24.875963201608606,3.915037394456022,-6.124734391666667,0.987495422774202
11125.0,0.0488,-0.4669,0.7798,60.840612,-14.967168000000001,-13.179741666666667,-24.087473554028854,3.6618775702792457,-6.230172325000001,0.9102005767961258
11141.0,-0.006,-0.4381,0.8252,62.329112,-6.119867999999999,-9.530941666666667,-23.280259824796786,3.546668692289873,-6.306419858333334,0.9343032965798633
11157.0,0.0526,-0.4816,0.882,63.741412,-10.921368000000001,-3.8973416666666667,-22.458189339390348,3.343962467119625,-6.3375985916666675,1.0062948474478044
11172.0,0.0336,-0.4437,0.8228,65.458912,-13.295468,5.637058333333334,-21.681804049157872,3.1116619646963413,-6.295320654166668,0.9354135395641865
11189.0,0.0305,-0.4498,0.7606,71.344412,-6.272568000000001,9.186658333333332,-20.69234889926648,2.9672631696979126,-6.217234058333334,0.8841734275581912
11204.0,-0.0048,-0.4109,0.7495,78.909312,0.5824320000000001,9.568358333333332,-19.745673200091517,2.9373191315771865,-6.145471370833334,0.8547585039062203
11220.0,0.0018,-0.4092,0.7479,87.390212,-1.432868,8.652358333333334,-18.602435356257093,2.8745950143331847,-6.076252504166668,0.852527002504906
11236.0,0.0062,-0.3424,0.7369,96.306212,0.826732,9.736258333333332,-17.33075919856448,2.845790573936247,-5.998362437500001,0.81258710917661
11251.0,0.0352,-0.2861,0.7095,107.443612,2.185432,11.522558333333333,-16.0000088833546,2.8298185287050646,-5.911943250000001,0.7658214543873787
11268.0,0.0205,-0.2922,0.8546,113.955112,-7.425168,20.560758333333336,-14.35412534299994,2.654235029573051,-5.737176804166667,0.9034059165181508
11284.0,-0.1871,-0.2032,1.0114,105.352012,-3.2801679999999998,19.659958333333336,-12.947428771604221,2.581235613757891,-5.579897137500001,1.0484400841249824
11299.0,-0.1809,-0.194,0.981,95.626912,0,9.385158333333333,-11.780255460539948,2.5830943761214087,-5.50950845,1.0162292113494868
11316.0,-0.145,-0.12,0.9026,89.016212,-1.2648679999999999,1.4920583333333335,-10.523681519381963,2.5783175399904392,-5.496825954166667,0.9220150541070357
11331.0,-0.0688,-0.0566,0.8232,86.374912,-3.753468,-0.9202416666666666,-9.469889603230055,2.5423307685983523,-5.503727766666667,0.8280067874117941
11346.0,-0.0172,-0.0809,0.8431,82.199412,-14.119868,2.4996583333333335,-8.468080141586968,2.349790844175928,-5.484980329166667,0.847147130078359
11363.0,0.0431,-0.1173,0.8575,68.000912,-17.745868,8.537858333333332,-7.538078912273492,2.0601365769762654,-5.412408533333333,0.8665582207791928
11378.0,-0.0237,-0.1033,0.8645,50.642112,-4.745868,9.171358333333332,-6.991544558616121,1.9998963446551872,-5.3436233458333335,0.870972347437047
11395.0,-0.0509,-0.1272,0.8347,39.741412,1.154932,5.2782583333333335,-6.521125292770582,2.0317952340334102,-5.29875815,0.8458692215703324
11410.0,-0.0879,-0.0931,0.8243,38.390212,-1.654268,0,-6.138258891853246,2.0264208717502785,-5.29875815,0.8341849375288433
11426.0,-0.0913,-0.1163,0.7704,42.207012,-1.1427679999999998,-6.897341666666667,-5.6526227251033765,2.0346877642799734,-5.353936883333334,0.784460030849246
11442.0,-0.0714,-0.1089,0.7927,43.298612,3.4526320000000004,-13.179741666666667,-5.14602275882695,2.118365695585763,-5.459374816666667,0.8033246292751144
11458.0,-0.0403,-0.0747,0.7845,43.245212,6.987032,-14.462141666666668,-4.633825612315332,2.2546893802243058,-5.575071950000001,0.7890782153880563
11473.0,-0.0337,-0.0642,0.8278,43.069612,0.9030320000000001,-12.469841666666667,-4.159017069530415,2.28972135005342,-5.668595762500001,0.8309694158030125
11490.0,0.0131,-0.1118,0.8079,39.138312,-8.264868,-9.156841666666667,-3.6657175408590397,2.1646304217859007,-5.746428916666668,0.8157041497994233
11505.0,-0.0217,-0.0703,0.8646,34.184112,-7.547368,-8.538541666666667,-3.3164243817019523,2.065663832261095,-5.810467979166668,0.8677246913624159
11522.0,-0.0313,-0.0372,0.8989,27.619212,-3.982468,-12.530941666666667,-2.9974164877449727,2.0116044211593063,-5.916980983333334,0.9002137190689775
11537.0,-0.0083,-0.0165,0.8799,27.520012,-1.8603679999999998,-12.691241666666667,-2.721106435191132,1.9931102651770984,-6.012165295833334,0.8800938302249369
11553.0,-0.0081,0.0315,0.8871,31.428412,-2.6236680000000003,-11.500341666666667,-2.338267442917984,1.957110516803882,-6.104168029166668,0.8876960459526673
11569.0,-0.0183,0.0358,0.9269,36.268112,-1.4022679999999998,-10.851541666666668,-1.864667567668591,1.9385347426721107,-6.190980362500001,0.9277715990479553
11585.0,-0.0181,0.0524,1.0034,39.520012,-1.684768,-11.065241666666667,-1.3263245181432595,1.9133567250069106,-6.279502295833335,1.0049303110166397
11600.0,0.0197,-0.0024,1.0569,37.695512,-2.432868,-9.630141666666667,-0.8504996061043955,1.8719889713622238,-6.351728358333335,1.0570863067886178
11617.0,0.0012,0.062,1.0819,33.741412,4.803832,-8.782841666666668,-0.35585183363506556,1.9431757606716622,-6.426382512500002,1.0836757125634957
11632.0,-0.014,0.0984,1.1017,30.596312,7.8725320000000005,-9.607241666666667,0.03878136749396525,2.0469567994269897,-6.4984368250000015,1.1061742403437171
11649.0,0.0491,0.1079,1.0199,30.833012000000004,8.849632,-5.103441666666666,0.5094703294941636,2.1713896910896784,-6.541816079166669,1.0267663950480654
11664.0,0.0422,0.1079,0.9836,35.382612,7.513732,3.0645583333333333,0.9948016740524882,2.24930825905302,-6.518831891666669,0.9904000252423261
11679.0,-0.0088,0.1199,0.9868,38.665012,6.452632,9.560758333333332,1.5358365536968213,2.309999489540376,-6.447126204166669,0.9940964188648906
11696.0,-0.076,0.0939,1.0226,36.466512,-1.486268,11.713358333333332,2.1173331542755656,2.2578622921197713,-6.347562658333336,1.0297106243989134
11711.0,-0.0813,0.1021,0.9729,31.535212,-1.791668,9.873658333333333,2.555037350575875,2.2130476845196236,-6.273510220833336,0.9816152555864237
11727.0,-0.0953,0.1084,0.9629,27.252812000000002,1.9488320000000001,6.965258333333334,2.959094298932515,2.234777350539471,-6.21778815416667,0.9736575681419006
11743.0,-0.1017,0.1108,0.9794,20.733712,1.0938320000000001,3.1790583333333338,3.263254708755613,2.251214858755077,-6.192355687500004,0.990880361093104
11759.0,-0.0741,0.1129,0.95,15.367312,2.0786320000000003,1.2095583333333335,3.4868931284598106,2.2872700854789834,-6.182679220833337,0.9595505301962998
11774.0,-0.0708,0.1302,0.9235,12.382612,0.9870320000000001,2.7668583333333334,3.658093162503335,2.3083282410414685,-6.161927783333336,0.9353164865434587
11790.0,-0.0801,0.1243,0.9102,11.336812,1.322832,2.591258333333333,3.8309119154604314,2.3398451106573557,-6.14119771666667,0.9221336887892124
11806.0,-0.0852,0.1146,0.9364,9.092512000000001,1.719832,0,3.9721376481775406,2.3816194101476786,-6.14119771666667,0.9472260342705958
11822.0,-0.0697,0.1077,0.9446,5.184112000000001,-1.1656679999999997,-3.584341666666666,4.05471743958342,2.3795909469644205,-6.169872450000003,0.9532714933323035
11838.0,-0.0382,0.1367,0.9332,3.7032120000000006,1.7732320000000001,-5.027041666666666,4.120947325259959,2.422007824147155,-6.210088783333337,0.9439323969437642
11853.0,-0.0176,0.1445,0.9197,2.7490120000000005,1.5290320000000002,-4.362941666666666,4.176968737469596,2.454324578929092,-6.242810845833337,0.9311488065824924
11869.0,-0.0363,0.144,0.9518,1.1917120000000008,2.9183320000000004,-3.6454416666666667,4.217644864685954,2.507806007673317,-6.271974379166671,0.9633155921088373
11885.0,-0.0363,0.1326,0.957,-1.922787999999999,0.7427320000000002,-4.431641666666667,4.2139733625867235,2.524751673157643,-6.307427512500004,0.9668244152895602
11900.0,-0.0653,0.1237,0.9607,-7.800587999999999,3.788532,-7.714141666666666,4.129483405675087,2.5876707881388312,-6.365283575000004,0.9708296812520721
11916.0,-0.0469,0.1055,0.9443,-14.754788,7.643532,-14.630141666666667,3.931283643408056,2.713405274332,-6.482324708333337,0.9513318821525956
11932.0,-0.0127,0.1113,0.9647,-18.869287999999997,2.399232,-22.553841666666667,3.674154881253603,2.750070235034539,-6.66275544166667,0.9711823052341924
11948.0,0.132,0.1302,0.8835,-20.426588,3.605332,-27.309541666666664,3.4025577866302927,2.783875314963208,-6.881231775000003,0.9027448642889087
11964.0,0.2257,0.1427,0.8558,-22.380788,19.399231999999998,-24.385841666666664,3.111996151327791,3.033982684078225,-7.076318508333337,0.8964917289077462
11979.0,0.2592,0.1245,0.8171,-17.876987999999997,22.383931999999998,-13.706441666666667,2.9193323705223433,3.2715844834592547,-7.179116820833337,0.8662201221398635
11996.0,0.1741,0.1313,0.8134,-9.945687999999999,33.903032,0,2.832114808117525,3.7210805020065547,-7.179116820833337,0.842122354530504
12011.0,0.0132,0.1044,0.9072,-4.754788,34.269432,7.965258333333334,2.841890668038393,4.1038308875487,-7.119377383333337,0.913282782056029
12027.0,-0.1215,0.0317,0.9482,-2.9456879999999996,26.223632,12.659958333333332,2.8651457184250155,4.4063971892455305,-7.01809771666667,0.9564781126612361
12043.0,-0.3112,0.0328,0.9664,-2.2204879999999996,17.353432,5.789758333333333,2.8901907999865193,4.605401558843812,-6.971779650000004,1.0158002953336842
12058.0,-0.3107,0.0315,1.0255,-4.403688,11.834332,-7.767541666666667,2.8757215523163797,4.738881778354288,-7.030036212500004,1.0719967304054616
12075.0,-0.2692,0.062,1.1627,-17.304488,1.0251320000000002,-9.172141666666667,2.632126406034551,4.738782754362648,-7.1079994166666705,1.1950664960578554
12090.0,-0.2581,0.0896,1.1425,-39.441888,-4.310668,-4.523241666666666,2.1002625129715717,4.679402994645624,-7.14192372916667,1.1747127393537538
12106.0,-0.2827,0.0957,1.0381,-56.815888,-4.249668,-2.2026416666666666,1.2682341886917847,4.640331645726152,-7.159544862500003,1.0801524846057615
12122.0,-0.3151,0.0311,0.8597,-60.953288,5.605332000000001,-11.591941666666667,0.38243057797751523,4.782737356657636,-7.252280395833337,0.916154632144596
12138.0,-0.3149,0.0211,0.7985,-52.373188,15.391532000000002,-26.561441666666667,-0.35686440730325836,5.100780151184912,-7.46477192916667,0.858609032097846
12153.0,-0.1555,0.0419,0.7623,-38.212788,15.078631999999999,-40.01184166666667,-0.8241814980075788,5.397583511290742,-7.76486074166667,0.7791258884159864
12170.0,0.0575,0.0807,0.8081,-24.884587999999997,10.918332,-43.950741666666666,-1.132506674739268,5.626296414696431,-8.138442045833337,0.8141525348483539
12185.0,0.288,0.0907,0.8621,-13.716688,7.689332,-37.84384166666666,-1.2184956295313698,5.731388911593281,-8.422270858333336,0.9134478091275932
12201.0,0.4554,0.0925,0.9377,-7.708988,1.2007320000000001,-20.500341666666664,-1.2196911336700875,5.672723003369631,-8.58627359166667,1.0465307926668952
12217.0,0.5009,0.0901,0.9896,-6.396088,-3.6236680000000003,5.125558333333333,-1.199325830787576,5.473439013149136,-8.545269125000003,1.1128014108546054
12233.0,0.3434,0.1189,1.0331,-8.136488,-12.257268,37.90425833333333,-1.2029187143550626,5.103920808737483,-8.242035058333336,1.095151304615029
12249.0,-0.0795,0.0769,1.0089,-15.548688,-15.180968,64.83555833333332,-1.3239773136017543,4.7128582001728745,-7.723350591666669,1.0149448605712528
12265.0,-0.5568,-0.0171,0.8663,-23.632687999999998,-16.883268,72.35455833333333,-1.5804989444380713,4.37592699167716,-7.144514125000002,1.029948707460716
12280.0,-0.8873,-0.1117,0.6357,-20.121187999999997,-13.425168,50.48435833333333,-1.77777428584193,4.223423048325054,-6.765881437500003,1.0972204290843295
12297.0,-0.8746,-0.1868,0.5331,-3.907488,3.605332,1.1408583333333335,-1.7695634052556077,4.4359497342797685,-6.75618414166667,1.0411604151138287
12312.0,-0.5532,-0.1244,0.5601,13.909312,12.452632000000001,-41.75224166666666,-1.5113633048205528,4.823756287413527,-7.069325954166669,0.7970054014873424
12328.0,-0.1071,-0.0162,0.7412,30.855912000000004,19.880132,-68.42404166666667,-0.9827518879825992,5.321163510082803,-7.616718287500003,0.7490729537234675
12344.0,0.3115,0.0542,0.923,35.023812,19.063332,-68.88964166666666,-0.39349236776947394,5.724785549739865,-8.167835420833336,0.9756530582128055
12360.0,0.6031,0.11,1.0872,27.039112000000003,10.269431999999998,-49.202641666666665,0.07099422337137233,5.877401230514656,-8.56145655416667,1.2481319842067986
12376.0,0.7373,0.162,1.1366,13.710812,0,-11.813341666666668,0.3340096800632401,5.7576121456768785,-8.655963287500002,1.3644467193701628
12392.0,0.5592,0.1984,1.149,2.9017120000000007,-17.028268,37.140858333333334,0.44072767838992416,5.303563558458415,-8.358836420833336,1.2931620934747508
12407.0,-0.0112,0.1249,1.0616,-6.7166879999999995,-27.203868,73.86605833333333,0.4086862812101718,4.735269799797844,-7.804840983333336,1.0689808277045947
12423.0,-0.5316,0.0117,0.9066,-10.029587999999999,-34.997768,79.20195833333334,0.3129327156925962,4.101196404147218,-7.1712253166666695,1.0510275971638423
12439.0,-0.8708,-0.1086,0.74,-8.563988,-23.638968000000002,49.430958333333336,0.2224864230844103,3.766543117073994,-6.775777650000003,1.1479053096836864
12454.0,-0.8437,-0.1533,0.661,2.2528120000000005,-1.8068679999999997,-0.5843416666666665,0.2774246474400843,3.8810144370719666,-6.780160212500003,1.0827056756108744
12471.0,-0.4761,-0.073,0.7625,12.428412,20.773232,-44.78284166666666,0.4933748975220791,4.407430507745497,-7.16081436666667,0.9018904922439309
12486.0,-0.0078,0.0414,0.8765,21.825312000000004,37.254132000000006,-61.17214166666667,0.8227149548955074,5.1006779380321845,-7.61960542916667,0.877511851771815
12503.0,0.3472,0.0862,1.0465,22.909312000000003,33.559532000000004,-50.50794166666667,1.2153056829679263,5.721102837944372,-8.048922933333337,1.105956839121672
12518.0,0.53,0.1331,1.1569,14.237512,16.712232,-18.118641666666665,1.4409943688966764,5.9296481396619525,-8.184812745833337,1.2794659901693364
12534.0,0.3639,0.1788,1.1931,2.9017120000000007,-2.478668,25.056858333333334,1.5149720134538645,5.795646520645717,-7.98435787916667,1.260111209377966
12550.0,-0.1002,0.0978,1.0948,-9.930387999999999,-16.822168,53.53015833333333,1.3913727290735285,5.448706721194484,-7.556116612500004,1.103717318881968
12566.0,-0.5179,-0.0116,0.8947,-17.678487999999998,-15.463368,49.117958333333334,1.1413586787562708,5.189042313372704,-7.163172945833337,1.033848663973601
12581.0,-0.6594,-0.1099,0.7876,-15.266288000000001,0.643532,17.827858333333335,0.9308583294872186,5.258543691618993,-7.0294640083333375,1.0330537885318458
12598.0,-0.4855,-0.059,0.8658,-8.655588,8.803832,-17.095741666666665,0.7940004385720845,5.507212148008101,-7.174777812500004,0.9943846790855136
12613.0,-0.1678,0.0015,0.9119,-1.312087999999999,7.414432,-33.63774166666666,0.7824238900967541,5.71336142567285,-7.427060875000004,0.9272112488532481
12630.0,0.0958,0.0305,0.9648,1.390212000000001,6.964132,-31.294241666666665,0.8148935142460991,5.889836597170694,-7.693061929166671,0.9700241904200121
12645.0,0.2452,0.0552,0.9797,0,7.773232,-18.286641666666664,0.8277775406776493,6.013419614641832,-7.8302117416666706,1.0114258104280314
12661.0,0.2429,0.054,1.0361,-5.312087999999999,4.078632000000001,-2.530941666666666,0.7605249097213617,6.041188402156077,-7.850459275000004,1.0655607068581312
12677.0,0.2009,0.0404,0.974,-11.854087999999999,3.574832,9.850758333333333,0.593614278072269,6.027708701704711,-7.771653208333337,0.9953235504096143
12692.0,0.0945,0.041,0.9193,-15.960887999999999,4.773232,19.270658333333333,0.3829466329112164,6.012198202196385,-7.627123270833337,0.9250533714332378
12708.0,-0.0591,0.0188,0.8928,-15.999087999999999,6.666432,23.530158333333336,0.15913622983368947,6.035245759969489,-7.43888200416667,0.8949514456103193
12724.0,-0.2197,-0.0034,0.9246,-16.945687999999997,7.712232,19.568358333333336,-0.07889869032211783,6.09717956172529,-7.282335137500003,0.9503498355868748
12740.0,-0.3107,-0.032,0.9397,-21.136487999999996,9.826732,8.629458333333334,-0.3849130557720264,6.222616704926072,-7.213299470833337,0.9902497563746229
12755.0,-0.3319,-0.0289,0.9684,-26.808287999999997,12.620632,-5.2179416666666665,-0.7534660127459308,6.407471318413593,-7.252434033333337,1.0241051606158422
12772.0,-0.2522,-0.028,0.9518,-33.617388,14.269431999999998,-16.340041666666664,-1.2858365205097457,6.658697171348755,-7.391324387500004,0.9850442020538976
12787.0,-0.1558,-0.014,0.9305,-37.495288,17.987032,-20.637741666666667,-1.8016177228755927,6.936392945532478,-7.546107450000004,0.9435570412010076
12804.0,-0.0962,-0.0271,0.9126,-37.373188,17.147332,-19.515641666666667,-2.382760331882328,7.22726807976121,-7.71199040416667,0.9180564307274363
12819.0,-0.0793,-0.0184,0.8746,-34.052488000000004,15.597732,-14.950741666666667,-2.8329691838663336,7.452170094764264,-7.82412096666667,0.8783804471867529
12835.0,-0.0818,-0.0277,0.8474,-28.166987999999996,11.925932,-11.118641666666667,-3.2189193083998933,7.627552125010987,-7.913070100000003,0.8517894634239144
12851.0,-0.1082,-0.0302,0.8694,-21.449488,7.765632,-7.4774416666666665,-3.495470712829657,7.734615099388613,-7.972889633333336,0.8766274237097537
12867.0,-0.1301,-0.051,0.9154,-19.144087999999996,5.910632,-6.111041666666666,-3.7361999724097967,7.812842015682985,-8.02177796666667,0.9260044114365763
12882.0,-0.1608,-0.0609,0.9612,-21.762487999999998,8.506032000000001,-5.317141666666666,-3.998252305689266,7.927071514284634,-8.06165652916667,0.976458340125169
12899.0,-0.1724,-0.0588,0.9349,-27.411288,10.750332,-6.859141666666666,-4.397337567063843,8.099554868538242,-8.119959233333338,0.9524795063412125
12914.0,-0.1445,-0.077,0.8699,-28.907487999999997,12.994632,-8.530941666666667,-4.764097110266069,8.284000601681315,-8.183941295833337,0.8851752707797479
12931.0,-0.1271,-0.0797,0.8347,-26.197587999999996,14.345732000000002,-7.546141666666666,-5.142233409201694,8.51436706728886,-8.248083500000003,0.8480746370455846
12946.0,-0.1449,-0.1207,0.8386,-21.533488,12.452632000000001,-6.332441666666666,-5.404600987418641,8.687821194809104,-8.295576812500004,0.8595431693638197
12962.0,-0.1624,-0.1306,0.8737,-17.937987999999997,7.025132,-6.271341666666666,-5.638122183323514,8.789782161995777,-8.345747545833337,0.8982103372818641
12978.0,-0.1577,-0.127,0.8542,-17.640287999999998,1.4984320000000002,-5.378241666666666,-5.872555824146831,8.807231470374733,-8.38877347916667,0.8778701099821088
12994.0,-0.1592,-0.1431,0.796,-14.487687999999999,-4.409968,-3.4621416666666667,-6.0647219050292005,8.736801352881818,-8.416470612500003,0.82428044378112
13009.0,-0.183,-0.1504,0.7706,-9.602188,-3.0816679999999996,-3.408741666666667,-6.179059406475971,8.69987885150563,-8.442036175000004,0.806184544629826
13026.0,-0.1938,-0.1573,0.7793,-3.9914879999999995,0.5671320000000002,-5.6912416666666665,-6.228278887125541,8.72724420750038,-8.49041172916667,0.8182971465183049
13041.0,-0.1636,-0.1422,0.7838,1.4742120000000007,4.506032,-7.515641666666666,-6.197196034625486,8.814894604567112,-8.546779041666671,0.8132209047977063
13058.0,-0.1207,-0.1116,0.8167,7.733712000000001,-4.455768,-6.401141666666667,-6.06328399100494,8.757664455665907,-8.601188745833337,0.8330797920967715
13073.0,-0.1021,-0.1113,0.8785,11.252812,-10.837468000000001,-1.1644416666666666,-5.898006687930757,8.61030732315285,-8.609922058333337,0.8913890003808662
13089.0,-0.1228,-0.1095,0.9371,9.336812,-13.867968000000001,1.3927583333333335,-5.756221692739693,8.403673903106744,-8.598779991666671,0.9514339178313963
13105.0,-0.1171,-0.114,0.929,3.0085120000000005,-12.646567999999998,2.2706583333333334,-5.718237969231496,8.216142239971667,-8.580614725000004,0.9432652914212417
13120.0,-0.1281,-0.1096,0.9222,-3.2433879999999995,-10.180968,2.362258333333333,-5.77691521902478,8.078825403400321,-8.562897787500004,0.9374831251814616
13136.0,-0.1509,-0.1233,0.8719,-6.205188,-10.310668,2.4996583333333335,-5.887377381793359,7.9342136433335275,-8.542900520833337,0.8934110532112304
13152.0,-0.1669,-0.1287,0.8444,-5.899888,-6.387068,0,-5.994902192699845,7.858399726043958,-8.542900520833337,0.8703049235756397
13168.0,-0.1229,-0.1134,0.8138,-1.1364879999999993,-6.951968,-2.4011416666666667,-6.027857772576429,7.774187567070237,-8.56210965416667,0.8308034725493146
13184.0,-0.0616,-0.1191,0.7863,7.168812000000001,-13.310668,0,-5.9333117185477455,7.5835697018578925,-8.56210965416667,0.7976509637679879
13200.0,-0.073,-0.1198,0.8409,13.825312,-18.402268,2.9958583333333335,-5.7385709860177965,7.30968109750025,-8.538142787500004,0.8525220525006962
13215.0,-0.076,-0.1094,0.8982,15.405512,-21.654268000000002,3.156158333333334,-5.537829343900222,7.004283200912294,-8.514471600000004,0.9080240084931676
13232.0,-0.0375,-0.1141,0.9177,13.306212,-21.951968,3.117958333333333,-5.346064738962193,6.6457986536980185,-8.48796895416667,0.9255259855887353
13247.0,0.0142,-0.0908,0.8354,13.634512,-18.990068,6.797358333333333,-5.177921044943758,6.365064672196639,-8.43698876666667,0.8404400276045877
13263.0,-0.0016,-0.0897,0.8239,17.428412,-17.638968000000002,12.423258333333333,-4.938942910716832,6.080231852229924,-8.337602700000003,0.8287700887459681
13279.0,-0.0609,-0.1093,0.8293,21.894012000000004,-15.348868,16.163758333333334,-4.635881213596295,5.833618464001243,-8.208292633333336,0.8386857516376441
13295.0,-0.1338,-0.1067,0.8948,22.313912000000002,-10.799268000000001,14.873658333333333,-4.331841250970247,5.668966551502085,-8.08930336666667,0.9110183148543173
13310.0,-0.1536,-0.1018,0.9095,19.428412,-6.287768000000001,10.858458333333333,-4.096857652342136,5.591961341835297,-8.00786492916667,0.9279797680984214
13327.0,-0.1781,-0.0962,0.9421,15.802412,-1.0282679999999997,8.163758333333334,-3.8864733812596737,5.601090375719871,-7.938472983333337,0.9636007783309435
13342.0,-0.2323,-0.0955,1.0161,9.245212,3.4221320000000004,4.301158333333333,-3.8042355658513314,5.69136126631506,-7.906214295833338,1.0466817806764386
13359.0,-0.2098,-0.0892,0.9961,1.6574120000000008,-4.730568,0,-3.828473738738071,5.660341443572995,-7.906214295833338,1.021855121825007
13374.0,-0.1434,-0.087,0.9048,-2.0524879999999994,-2.890868,-2.103441666666667,-3.908054746896139,5.668123939138026,-7.921990108333338,0.9202149748835867
13389.0,-0.0968,-0.0801,0.8619,0,-6.890868,-1.9507416666666664,-3.9539185778637633,5.613561337090022,-7.936620670833338,0.8710096784766516
13406.0,-0.0514,-0.0732,0.8248,5.443612000000001,-8.570267999999999,0,-3.9061071314151787,5.510423359003351,-7.936620670833338,0.8296356067575692
13421.0,-0.0474,-0.0657,0.8654,9.878812,-9.722968000000002,3.2400583333333337,-3.801341998163517,5.400548068493468,-7.912320233333338,0.8691837607778921
13437.0,-0.0532,-0.068,0.8804,11.176512,-8.707667999999998,5.927158333333334,-3.6656634944472497,5.2919349778955835,-7.864902966666671,0.8846233096634973
13453.0,-0.0828,-0.075,0.8903,11.291012,-4.486268,7.2706583333333334,-3.528933914297948,5.2487111112734155,-7.806737700000005,0.8972819679454168
13469.0,-0.1083,-0.0903,0.9189,11.138312,-7.501568,7.0568583333333335,-3.3971115514696755,5.159224401871532,-7.750282833333338,0.9296559524899521
13485.0,-0.093,-0.0801,0.8772,11.451312,-11.768768000000001,5.392758333333334,-3.2620680211678934,5.003425924511505,-7.707140766666671,0.88574536408609
13501.0,-0.0719,-0.082,0.8624,12.924612,-14.158068,3.5759583333333333,-3.1062213915694743,4.809724082853563,-7.6785331000000046,0.8692682957522379
13516.0,-0.0546,-0.0536,0.8783,13.978012000000001,-10.722968000000002,2.2019583333333337,-2.9465088596886937,4.678609704173721,-7.662018412500005,0.8816263437534066
13533.0,-0.0437,-0.0283,0.8845,14.352012,-10.448068,3.133258333333333,-2.7493075512092116,4.5270966654063844,-7.635385716666671,0.8860309418976292
13548.0,-0.0714,-0.027,0.8949,14.756612,-2.2725679999999997,4.873658333333333,-2.5715620665496166,4.516761431732307,-7.598833279166671,0.8981497480932676
13563.0,-0.1212,-0.0435,0.9155,14.993312000000001,3.605332,3.7668583333333334,-2.3897470848772175,4.596884545178226,-7.570581841666671,0.9245117305908022
13580.0,-0.1406,-0.0437,0.9625,15.672612,5.780932,-0.9125416666666666,-2.1667169916419198,4.723978540093148,-7.578338445833338,0.9736962051892778
13595.0,-0.0959,-0.0294,0.9894,14.833012,4.704532,-4.416341666666666,-1.9855454792194098,4.820067146369882,-7.611461008333338,0.9944714827484998
13612.0,-0.0613,-0.009,1.0209,11.489412,0,-2.4927416666666664,-1.8268751488676909,4.839232218001528,-7.632649312500004,1.0227783239783683
13627.0,-0.0818,0.0033,1.0358,5.2528120000000005,-2.425168,0.6446583333333334,-1.7771250731387067,4.819552317059935,-7.627814375000004,1.0390302064906487
13643.0,-0.0979,-0.0034,0.9846,0,-1.051168,2.9881583333333337,-1.7992671757953103,4.819519221910301,-7.603909108333338,0.9894610300562625
13659.0,-0.1183,-0.012,0.9156,-1.5105879999999992,0.758032,4.171358333333333,-1.8404452074047628,4.8512430248107,-7.570538241666671,0.9232888226335245
13674.0,-0.1392,-0.0231,0.8678,1.1383120000000009,3.1931320000000003,3.614158333333333,-1.8381845819876743,4.923613337029633,-7.54343205416667,0.8791968437158997
13690.0,-0.1683,-0.024,0.8928,3.291012000000001,4.025132,-0.7064416666666666,-1.7990589510635069,5.019608620132171,-7.549083587500004,0.9088414218113081
13706.0,-0.1307,-0.0353,0.8831,3.894012000000001,5.780932,-4.7217416666666665,-1.750881649576733,5.144786726052724,-7.586857520833337,0.8934171422129754
13722.0,-0.1046,-0.0131,0.886,3.9551120000000006,6.536632,-5.301841666666666,-1.6996118498902881,5.279285164284462,-7.62927225416667,0.8922492757071872
13737.0,-0.1101,-0.0055,0.8757,4.428412000000001,5.750332,-4.820941666666666,-1.6425754731900395,5.393938897211857,-7.66542931666667,0.8826113244231575
13753.0,-0.1057,-0.0205,0.87,5.939812000000001,4.193132,-5.149241666666667,-1.557178769139959,5.487789757356575,-7.706623250000003,0.8766371769438027
13769.0,-0.0896,-0.0212,0.8722,7.458912000000001,0.7656320000000001,-6.370541666666666,-1.4484295624721493,5.5242212987039725,-7.757587583333336,0.8770464297857896
13785.0,-0.0464,-0.0083,0.8795,7.909312000000001,0,-7.569041666666666,-1.3320292444065696,5.540759123635521,-7.81813991666667,0.8807622267104782
13801.0,0.0103,-0.0078,0.8878,6.840612,0,-7.118641666666666,-1.2321363575912307,5.5432259600185265,-7.875089050000003,0.8878940083140555
13816.0,0.0399,0.0029,0.91,6.436012000000001,0,-4.172141666666667,-1.1431327912662494,5.529229675857907,-7.9063801125000035,0.9108789271906559
13832.0,0.0344,-0.0032,0.9364,4.947512000000001,1.895432,-1.6377416666666667,-1.0702422990803675,5.530912471373754,-7.919482045833337,0.9370371177280012
13848.0,0.0388,-0.0131,0.9141,2.520012000000001,1.048032,0.7744583333333335,-1.0357655630652887,5.506075235458774,-7.91328637916667,0.9150168632325855
13863.0,0.0243,-0.0122,0.9022,1.4818120000000008,0.6893320000000001,2.4614583333333337,-1.0186281567402173,5.465469749467107,-7.894825441666669,0.9026096443092109
13879.0,0.0049,-0.0171,0.8925,1.3749120000000008,0,2.9194583333333335,-1.0017250732964675,5.409069064817734,-7.871469775000003,0.8926772485058639
13895.0,-0.0132,-0.0165,0.8925,1.1154120000000007,2.399232,1.5378583333333333,-0.9888500396622388,5.387864577068123,-7.859166908333337,0.8927500994119238
13911.0,-0.02,-0.0042,0.8995,1.3062120000000008,4.987032,0.8889583333333334,-0.9713191455489483,5.405282049617443,-7.85205524166667,0.8997321212449848
13926.0,-0.0483,-0.0033,0.8907,2.2299120000000006,7.994632,1.7057583333333333,-0.9400129354669234,5.463168766045916,-7.83926205416667,0.8920147252147804
13942.0,-0.0828,0.0082,0.8973,5.451312000000001,10.132031999999999,4.346958333333333,-0.8535088907533989,5.56693688497872,-7.8044863875000035,0.9011494715084729
13958.0,-0.1469,0.0067,0.9476,7.344412,9.261832,8.362258333333333,-0.7363358576527106,5.667866100313549,-7.7375883208333365,0.9589422610355641
13973.0,-0.262,-0.0007,0.9868,7.733712000000001,2.933532,9.591258333333332,-0.6214216706851577,5.690159653692247,-7.665653883333336,1.0209890939672177
13989.0,-0.3048,-0.0286,1.0205,5.084912000000001,0,4.7820583333333335,-0.5447688923792896,5.6961955350828655,-7.627397416666669,1.065430077480451
14005.0,-0.2834,-0.0245,1.0011,0.6574120000000008,0.971732,-2.9354416666666667,-0.5403657855703401,5.738987400134011,-7.650880950000003,1.040729080981213
14020.0,-0.2032,-0.0115,0.9633,-2.2585879999999996,2.0022320000000002,-8.179741666666667,-0.579209373456254,5.805204103033161,-7.712229012500003,0.9845655793292797
14036.0,-0.1107,0.0046,0.9099,-3.899888,2.322832,-8.721741666666667,-0.6430623016519774,5.875835433161528,-7.7820029458333355,0.9166207830940776
14052.0,-0.043,0.0103,0.8612,-2.876988,0.6053320000000002,-5.7217416666666665,-0.6870168091651919,5.909521147315975,-7.827776879166668,0.8623343493100574
14068.0,0.006,0.0103,0.8065,1.5200120000000008,0.826732,0,-0.6588448731794668,5.932862626929287,-7.827776879166668,0.8065880857042211
14084.0,0.0281,0.0056,0.7854,7.649712000000001,1.4831320000000001,4.316458333333333,-0.5336057383601976,5.951363054206571,-7.793245212500001,0.7859224707310513
14099.0,0.0355,0.0032,0.7852,12.069612000000001,2.750332,8.117958333333334,-0.3522970072819208,5.972128715931179,-7.732360525000002,0.786008606823106
14115.0,0.0366,-0.0033,0.7778,16.359712000000002,2.895432,11.667558333333332,-0.09535165841734243,5.9839381750537886,-7.639020058333335,0.7786676376991662
14131.0,0.0178,-0.0059,0.7826,20.138312000000003,2.5060320000000003,13.881358333333333,0.21551936431270927,5.979357058192913,-7.527969191666668,0.7828246355346771
14147.0,-0.0236,-0.0128,0.834,21.581012,-1.2267679999999999,14.484358333333333,0.5417569051685593,5.912162049018172,-7.412094325000002,0.8344320223960726
14162.0,-0.0756,0.0021,0.8566,21.168812000000003,-2.0893680000000003,12.705758333333332,0.8353172497623943,5.837736410551578,-7.3168011375000015,0.8599321659293832
14179.0,-0.1071,0.0009,0.8914,19.680312,-2.0511679999999997,7.911858333333334,1.1405175745902847,5.767792863974494,-7.2495503416666685,0.8978113276184478
14194.0,-0.1049,-0.0029,0.9235,16.130712000000003,2.307632,2.1713583333333335,1.3491148999663694,5.772505907797796,-7.233265154166668,0.929443204289536
14210.0,-0.0833,0.0186,0.9452,11.420712,3.368632,-1.9354416666666665,1.4985252256456505,5.79759056717537,-7.248748687500002,0.9490457786640221
14226.0,-0.0796,0.0317,0.964,6.665012000000001,-1.2725679999999997,-2.5079416666666665,1.5747466590301846,5.750126114549435,-7.268812220833335,0.9678001084934842
14241.0,-0.0728,0.0469,0.9366,2.9322120000000007,-4.425168,-2.4392416666666668,1.5938626807469478,5.6585620109633865,-7.287106533333335,0.9405950297551013
14258.0,-0.0367,0.0298,0.9015,2.9627120000000007,-7.051168,-1.6835416666666665,1.621905858842454,5.512193772760302,-7.301416637500002,0.9027387108128242
14273.0,-0.0081,0.0232,0.8787,5.5047120000000005,-7.974868,1.3774583333333335,1.6828850199233418,5.361757908532035,-7.291085700000002,0.8790435370332916
14288.0,-0.0055,0.0216,0.8739,9.115412000000001,-11.264868,7.331658333333333,1.7972736571391115,5.159132693906362,-7.236098262500001,0.8741842025568753
14305.0,-0.0325,0.0236,0.8408,13.596312000000001,-19.638968000000002,15.278258333333333,2.0036082923018044,4.796508997004097,-7.106233066666668,0.8417587837379542
14320.0,-0.1084,-0.0039,0.8234,18.886412000000004,-26.012968,18.804958333333335,2.2549428128167825,4.393677040748705,-6.965195879166668,0.8305138951275891
14337.0,-0.1565,-0.0186,0.8267,23.718412,-25.936668,16.133258333333334,2.6150250887282396,3.962485420550844,-6.8280631833333345,0.8415884386088012
14352.0,-0.188,-0.011,0.8876,27.260412000000002,-24.051168,10.117958333333332,2.971023843555425,3.6339478830761562,-6.752178495833334,0.9073581211407103
14368.0,-0.1232,0.0057,0.868,27.848212000000004,-17.219068,3.2782583333333335,3.3558233138254647,3.4012527848999836,-6.725952429166668,0.876718158817302
14384.0,-0.0757,0.0033,0.9022,28.985612000000003,-11.509167999999999,0,3.750413763361304,3.2612992160433465,-6.725952429166668,0.9053762864135553
14400.0,-0.0192,0.05,0.9055,26.741312,-9.142768,-2.4850416666666666,4.107668046367714,3.1526228986894798,-6.745832762500001,0.9070826257844431
14415.0,0.0166,0.075,0.9492,25.443612,-7.783968000000001,0,4.420776234001923,3.062279099551656,-6.745832762500001,0.9523031030087008
14431.0,0.0444,0.1241,0.9399,23.985612000000003,-14.409968,5.972958333333334,4.7433702475347825,2.847394766816085,-6.698049095833334,0.9490965072109369
14447.0,0.0294,0.0941,0.9745,21.581012,-21.631368000000002,12.148458333333332,5.029993800761298,2.5120406031740568,-6.600861429166668,0.979474052744635
14462.0,-0.0172,0.0918,0.9875,15.649712000000001,-25.738168,15.400358333333333,5.209413305753489,2.1397953728714616,-6.485358741666667,0.9919069159956493
14479.0,-0.0455,0.093,0.9313,8.168812,-21.845068,14.369858333333333,5.2978407759809425,1.7893658261305183,-6.3632149458333345,0.9370373204947602
14494.0,-0.0751,0.0845,0.8359,5.687912000000001,-8.341268,11.438558333333333,5.337460948172851,1.6915652122804512,-6.277425758333335,0.8435099703026633
14511.0,-0.1215,0.14,0.8284,6.7490120000000005,8.093831999999999,2.3774583333333332,5.4171754895143,1.8630741050548392,-6.257217362500001,0.8488868063528848
14526.0,-0.4567,0.4037,1.9999,-17.831187999999997,-23.135168,-10.072841666666667,5.151416929855269,1.5939498721932923,-6.332763675000002,2.0907292005422415
14542.0,0.1051,0.1606,0.6982,-47.632688,36.727432,-6.538541666666666,4.417541795584899,2.2262222180403954,-6.385072008333335,0.7241005524096774
14558.0,-0.0663,0.1472,0.8119,-33.128888,-1.051168,-9.240841666666666,3.9333521448626327,2.2539126457461114,-6.458998741666669,0.8277953491050792
14574.0,0.0924,0.116,0.9131,-33.220488,-12.852668000000001,-8.507941666666667,3.4595443678182574,2.076507417496858,-6.527062275000002,0.9250650625766818
14589.0,-0.0304,0.1882,1.0204,-29.472388,-3.0435679999999996,-1.7980416666666665,3.0917655183490833,2.0557221292500336,-6.5405475875000025,1.0380556632474003
14606.0,-0.0713,0.1212,0.887,-21.823487999999998,-7.768768000000001,-2.630141666666667,2.8029194307659457,1.9531261127175625,-6.5629037916666695,0.8980769065063415
14621.0,0.0228,0.0994,0.9309,-21.472388,6.330532,-4.790441666666666,2.5663920139541374,2.0656976318267604,-6.59883210416667,0.9364694389033739
14637.0,-0.0857,0.1047,0.9324,-14.640288,9.124432,-4.393441666666666,2.4199446918608474,2.23060168265399,-6.633979637500003,0.9421657709766366
14653.0,-0.0918,0.0793,0.8812,-10.090688,6.368632,-9.469841666666667,2.344770531335488,2.3542286028800326,-6.709738370833336,0.8895106351247297
14668.0,-0.1146,0.0732,0.939,-6.502888,6.315232,-11.904941666666668,2.329464914183607,2.475441550690574,-6.799025433333337,0.9487952360757298
14685.0,-0.0277,0.0751,0.8864,-6.403688,9.880132,-12.225541666666667,2.3005164583309132,2.6622527935827933,-6.902942537500003,0.8900068876137981
14700.0,-0.0349,0.1132,0.9209,-6.289187999999999,1.261832,-10.340041666666668,2.2879340537108677,2.6964895897532757,-6.980492850000003,0.9284875120323375
14716.0,-0.0027,0.1356,0.9227,-1.396087999999999,-13.058768,-2.874441666666667,2.3502748432583833,2.5002658934733955,-7.003488383333336,0.9326145720499974
14732.0,-0.01,0.1123,0.896,-2.2204879999999996,-7.387068,3.3469583333333333,2.3996932734465655,2.392121071100688,-6.976712716666669,0.9030654959636095
14747.0,-0.0737,0.1019,0.9224,-2.0372879999999993,2.345732,7.0263583333333335,2.452445255768661,2.439798045826584,-6.924015029166669,0.9309334347846788
14764.0,-0.1179,0.0625,0.9037,0,8.452632000000001,7.759158333333334,2.529018188562666,2.6014515955674167,-6.8580621833333355,0.9134989600431956
14779.0,-0.114,0.0005,0.9249,3.4360120000000007,12.223631999999998,-2.0728416666666662,2.6421331885650297,2.8058485511930997,-6.873608495833335,0.9318992756730741
14794.0,-0.0454,0.0481,0.9229,1.8101120000000008,30.895432,-11.492741666666667,2.723770772926152,3.2786011568401094,-6.959804058333336,0.9252670857649699
14811.0,-0.0813,0.0505,0.8823,-22.258587999999996,84.093832,-28.843841666666666,2.4022654555867526,4.691671735576991,-7.204976712500002,0.8874757630493353
14826.0,-0.1816,0.0614,0.9102,-33.541088,95.765632,-37.30184166666667,1.9622236407507663,6.098064825912398,-7.484740525000002,0.9301680278315311
14842.0,-0.1785,0.0432,0.8698,-25.655587999999998,66.765632,-43.75224166666666,1.617454565866775,7.128894929117001,-7.834758458333336,0.8889772381787961
14858.0,-0.1455,0.0496,0.9122,-14.739588,25.445031999999998,-43.63774166666666,1.4472262700748832,7.498762822650664,-8.183860391666668,0.9250617546953285
14874.0,-0.0721,0.0631,0.902,-12.556388,14.063331999999999,-39.71414166666666,1.3133115559335946,7.680594160269512,-8.501573525000001,0.9070744291401891
14889.0,-0.1089,0.0121,0.8473,-14.701388,-3.241968,-41.225541666666665,1.155785883504371,7.5939145379061905,-8.810765087500002,0.854355259830476
14906.0,-0.157,-0.0153,0.9114,-21.548688,-16.554968000000002,-51.75994166666666,0.8480582744362933,7.289007281329432,-9.25072459166667,0.9249502959618966
14922.0,-0.0491,0.057,0.9125,-36.647988,-17.295468,-60.23314166666667,0.33055471011824406,6.988690134613977,-9.732589725000002,0.9155960135343535
14938.0,-0.2529,0.0066,0.9976,-34.876988000000004,-85.142768,-50.92024166666666,-0.1561726212293454,5.649171867492706,-10.139951658333336,1.0291781818519086
14954.0,-0.1147,-0.1213,0.6847,22.794812000000004,-156.081668,-28.492741666666664,0.2505974414685562,3.2283528410391518,-10.36789359166667,0.7047580223026908
14969.0,0.0627,0.0945,1.3873,7.642112000000001,-154.11986800000003,-18.668341666666667,0.4088697775285003,1.0098471231088784,-10.50790615416667,1.391927738785315
14986.0,0.1228,0.1211,0.8427,1.2452120000000009,-23.944268,-1.6683416666666664,0.48267064058066633,0.6773594068816078,-10.522087058333337,0.8601676231991064
15001.0,-0.0607,-0.0111,0.8846,0,-6.898468,0,0.5270644559883969,0.6482527669791951,-10.522087058333337,0.8867496038905234
15017.0,0.0673,0.0,0.8999,0,-7.493968,0,0.5653696444247074,0.5870106758642091,-10.522087058333337,0.9024130429021957
15033.0,-0.0203,-0.0105,0.9141,0,-1.822168,0,0.5967951565507316,0.6116042104655517,-10.522087058333337,0.9143856680854091
15048.0,0.0251,-0.0129,0.918,0.8788120000000008,-3.967168,0,0.6346872527371222,0.5964152940732179,-10.522087058333337,0.9184336775184151
15065.0,-0.0052,-0.0219,0.8967,0,0.9793320000000001,0,0.652597892075458,0.6514261641356875,-10.522087058333337,0.8969824635966972
15080.0,0.0314,-0.0135,0.8948,0.8482120000000009,-2.432868,0,0.6779645659863908,0.6444188971681472,-10.522087058333337,0.8954525392224872
15096.0,0.0018,-0.0131,0.9315,0.6879120000000007,1.8801320000000001,0,0.6968865120908984,0.6983424898938716,-10.522087058333337,0.9315938492712368
15112.0,0.0197,-0.0089,0.8986,0.7108120000000008,0,0,0.7125573098769339,0.7155952084328975,-10.522087058333337,0.8988599779720977
15127.0,-0.0082,-0.0137,0.9355,0,1.8419320000000001,0,0.7131848731074627,0.7574253221331063,-10.522087058333337,0.9356362434194178
15143.0,0.0179,-0.0088,0.8971,0,-4.6007679999999995,0,0.7112469348169098,0.69412500131724,-10.522087058333337,0.8973217148826835
15159.0,0.0167,-0.0089,0.9192,0,1.6282320000000001,0,0.7070021129745517,0.7252729411194248,-10.522087058333337,0.919394768312285
15175.0,0.0071,-0.012,0.9114,0,0.788532,0,0.7003506808389118,0.7398058907680765,-10.522087058333337,0.9115066483575421
15191.0,0.0294,-0.0112,0.9052,0,1.819032,0,0.6916907063113403,0.7648790974297364,-10.522087058333337,0.9057465649948665
15207.0,-0.0109,-0.0171,0.9229,0,1.971732,0,0.6805270911871828,0.7920653885873327,-10.522087058333337,0.9231227599837414
15222.0,0.0294,-0.0098,0.9058,0,0,0,0.6680956547168602,0.7829659045583655,-10.522087058333337,0.9063299840565797
15238.0,0.0096,-0.0101,0.922,-0.9608879999999991,6.032832,0,0.639463877550929,0.8667635985149941,-10.522087058333337,0.922105292252463
15254.0,0.016,-0.0156,0.9122,-0.8005879999999992,7.025132,0,0.6119860214651286,0.9619576715448706,-10.522087058333337,0.912473670853028
15269.0,0.0488,-0.0159,0.9231,0,2.750332,-4.210241666666667,0.5958377120841752,0.9791817201166877,-10.553663870833336,0.9245257486949728
15286.0,0.0302,-0.0287,0.915,-1.5792879999999994,6.979332,-8.477441666666667,0.5505023799443625,1.068526102954774,-10.625722125000003,0.9159479952486387
15301.0,-0.0115,-0.0221,0.9398,-0.5868879999999992,1.9641320000000002,-15.271341666666666,0.521727698745263,1.0708670168655963,-10.740257187500003,0.9401301505642716
15318.0,-0.0049,-0.0031,0.8817,1.1230120000000008,-4.959568,-20.653041666666667,0.5213574239036508,0.9627731182930064,-10.91580804166667,0.8817190652356339
15333.0,-0.041,0.0017,0.9125,1.7261120000000008,-4.188568,-21.011841666666665,0.5287344225816151,0.8834363676937032,-11.07339685416667,0.9134222134369188
15348.0,-0.0028,-0.0029,0.9323,0.8864120000000008,2.758032,-16.225541666666665,0.5240277598716154,0.9079998461005998,-11.195088416666671,0.9323087149651665
15365.0,0.0166,0.0028,0.9137,0.5123120000000008,-0.5168680000000001,-8.576741666666667,0.5159846126721571,0.8806731348258499,-11.267990720833337,0.9138550705664438
15380.0,-0.0015,-0.0201,0.9269,0,-2.3183679999999995,-2.5385416666666663,0.49767230299226545,0.8286675286117925,-11.287029783333336,0.9271191239533353
15396.0,-0.0186,-0.0254,0.9109,0,-1.470968,0,0.47734519347576515,0.7910736798610022,-11.287029783333336,0.911443871009071
15412.0,-0.0195,-0.017,0.9095,0,-0.8984679999999998,0,0.45632796784524005,0.7654452825037611,-11.287029783333336,0.9098678475471039
15428.0,0.0056,-0.0092,0.9192,0,-1.0053679999999998,0,0.43573121616245974,0.7375233592692467,-11.287029783333336,0.9192630961808486
15443.0,0.03,0.015,0.9111,0,-0.7381679999999999,1.2629583333333334,0.4185645703063006,0.7110051848786246,-11.277557595833336,0.9117171765410588
15459.0,0.0287,0.0168,0.9187,0,-0.7305679999999999,3.4614583333333337,0.4046905971001148,0.6809146955244096,-11.24986592916667,0.9193017023806711
15475.0,0.0027,-0.021,0.9078,0,0,3.3316583333333334,0.3890105555668705,0.6629811987600734,-11.223212662500003,0.9080468765432763
15491.0,-0.0182,-0.0453,0.9165,0,0,1.6599583333333334,0.36873276179232195,0.648116983593933,-11.209932995833336,0.9177993135756858
15507.0,-0.0204,-0.0387,0.9088,0,0,0,0.34525440623940096,0.6362652743207751,-11.209932995833336,0.9098523451637635
15522.0,0.0022,-0.015,0.9161,0,-0.5931679999999999,0,0.3219794714464119,0.6155442279662834,-11.209932995833336,0.9162254362328084
15538.0,0.0029,-0.0121,0.9172,0,0,0,0.2992956704426126,0.6035214479058295,-11.209932995833336,0.9172843942856544
15554.0,0.0039,-0.0149,0.9152,0,0,0,0.2768244677971524,0.5912219152262193,-11.209932995833336,0.9153295909124757
15569.0,0.0022,-0.0111,0.9207,0,0,0,0.255071239359931,0.5789160766524817,-11.209932995833336,0.920769536854907
15586.0,0.0029,-0.0159,0.9117,0,-0.7687680000000001,0,0.23337791866779672,0.5537335387211525,-11.209932995833336,0.9118432485904581
15601.0,0.011,-0.0111,0.9159,0,-1.4175679999999997,0,0.21238915533952202,0.5197266269711585,-11.209932995833336,0.916033307254709
15618.0,0.0151,-0.0118,0.9178,0,-1.3946679999999998,0.5530583333333334,0.191979536231882,0.4823229140814874,-11.205232000000002,0.9180000490196065
15633.0,0.0156,-0.0132,0.9244,0,-2.0969679999999995,1.5683583333333333,0.17195801342044525,0.43650708309995573,-11.193469312500003,0.9246258486544706
15649.0,0.007,-0.0115,0.9117,0,-1.0282679999999997,1.6294583333333335,0.1525089882101667,0.4059659382159135,-11.180433645833336,0.9117993967973438
15665.0,0.0071,-0.0106,0.9139,0,-0.600768,1.5530583333333334,0.13372036415070385,0.3824180049572576,-11.168009179166669,0.9139890480744285
15680.0,0.0032,-0.0074,0.9121,0,0,1.3393583333333334,0.11594932759647682,0.3689591845129822,-11.15796399166667,0.9121356313619153
15696.0,0.0099,-0.0138,0.9147,0,0,1.4614583333333333,0.09831488501556294,0.35511080603845135,-11.146272325000002,0.914857661059905
15712.0,0.0005,-0.0139,0.923,0,0,0.5301583333333334,0.08083762193669194,0.3421286424684321,-11.142031058333336,0.9231047936177127
15728.0,0.0184,-0.0127,0.9155,0,-1.0053679999999998,0.6675583333333335,0.0636716451050204,0.31192790346158455,-11.13669059166667,0.9157729522103172
15744.0,0.0289,-0.0142,0.9243,-0.7547879999999991,-1.1427679999999998,2.0034583333333336,0.034807179590589134,0.2773304852812598,-11.120662925000003,0.9248607138374946
15759.0,0.0112,-0.0096,0.9194,-0.6937879999999992,-2.1274679999999995,3.0110583333333336,0.008536542699193815,0.2297171061921349,-11.098079987500004,0.9195183304317538
15775.0,-0.0005,-0.0072,0.9167,-0.8692879999999994,-2.654268,3.0034583333333336,-0.020003249731459755,0.17385213524892618,-11.074052320833337,0.9167284112538456
15791.0,0.0131,-0.002,0.9189,-1.3578879999999993,-2.417568,1.9347583333333334,-0.05440686920675494,0.12214632552497219,-11.05857425416667,0.918995549499561
15807.0,0.0802,0.026,0.8948,-1.396087999999999,-0.9824679999999999,5.598858333333333,-0.08414350545448628,0.08494401665843263,-11.013783387500004,0.8987630833540061
15822.0,0.0782,0.0328,0.8948,0,0.6358320000000002,10.568358333333332,-0.08640248991441424,0.06532283440451447,-10.934520700000004,0.8988092789908213
15838.0,-0.0098,0.0005,1.0006,0.8635120000000007,1.5060320000000003,12.469058333333333,-0.07458665731053662,0.06453898051605302,-10.834768233333337,1.0006481149734905
15854.0,-0.0085,-0.0216,0.9158,0,-0.5855679999999999,11.079758333333332,-0.07889058232659046,0.03432683426443735,-10.74613016666667,0.9160941272598575
15869.0,0.0061,0.0093,0.9265,0,0,9.575958333333332,-0.08136985772344174,0.015126364146902445,-10.674310479166671,0.9265667542060853
15886.0,0.0468,0.015,0.9135,0,-0.5015679999999998,11.018758333333333,-0.08153065310259142,-0.016031924411614426,-10.580651033333337,0.9148210152811314
15901.0,-0.0311,-0.0826,0.9149,-0.7242879999999992,0.651132,10.033958333333333,-0.10244144927717719,-0.022531390572209663,-10.505396345833338,0.9191474201671895
15917.0,-0.0448,-0.0187,0.9078,0,0,4.568358333333333,-0.11344425369037582,-0.03126813103193878,-10.468849479166671,0.9090971180242516
15933.0,0.0321,-0.0371,0.9274,-0.9074879999999992,-0.570268,4.7744583333333335,-0.14176111475267,-0.05184423095737219,-10.430653812500005,0.9286967104496495
15948.0,0.0338,-0.0254,0.9108,-0.8769879999999992,-1.3946679999999998,7.087458333333334,-0.16971895197839287,-0.0865678378891727,-10.377497875000005,0.9117808069925579
15965.0,0.0514,0.0081,0.9238,-1.2585879999999994,-2.1427680000000002,9.453858333333333,-0.20238538082153407,-0.1406655634802208,-10.297140079166672,0.9252642919728394
15980.0,0.0546,0.0082,0.9202,-1.1517879999999991,-1.4939679999999997,13.545458333333332,-0.2278288047966618,-0.1847318686521581,-10.195549141666673,0.9218548909671196
15996.0,0.0164,0.0037,0.9225,-1.0066879999999994,-2.257268,15.675258333333332,-0.249896673920916,-0.24089332549366038,-10.070147075000007,0.9226531851134532
16012.0,-0.0144,-0.0167,0.9147,-0.9608879999999991,-2.700068,14.980558333333333,-0.2718084215602588,-0.29864696972473836,-9.95030260833334,0.9149657589221576
16027.0,-0.0116,-0.0208,0.9155,-0.6708879999999993,-2.753468,12.446158333333333,-0.28949121270376427,-0.3499226992201567,-9.85695642083334,0.9158097236871859
16044.0,-0.0139,-0.0492,0.9233,-0.6326879999999993,-3.0740679999999996,9.224858333333334,-0.3122990131010799,-0.40749439107798663,-9.778545125000006,0.9247144099666664
16059.0,-0.0001,-0.049,0.9161,-0.7471879999999993,-1.188568,5.553058333333333,-0.3394018390180156,-0.4288289090461417,-9.736897187500006,0.9174095159741914
16075.0,0.0262,-0.0251,0.9189,0,-2.3183679999999995,3.5607583333333332,-0.35587112507155044,-0.4706822420745365,-9.70841112083334,0.9196160394425491
16091.0,0.025,-0.0245,0.9171,0,-2.6084680000000002,3.682858333333334,-0.37274385351640155,-0.5179596431903856,-9.678948254166674,0.9177677592942564
16107.0,0.0389,-0.0116,0.9153,0,-4.020668,3.866058333333333,-0.38833456348413736,-0.5897136344551307,-9.648019787500006,0.9161996834751691
16122.0,0.0128,-0.0258,0.9208,-1.0143879999999992,-2.425168,4.568358333333333,-0.4194321910568273,-0.6323236569575101,-9.613757100000006,0.9212503025779694
16138.0,-0.001,-0.0244,0.9271,-1.3502879999999993,-1.623668,5.7744583333333335,-0.4567942165948749,-0.6618754856388931,-9.56756143333334,0.9274215708080118
16154.0,-0.016,-0.0209,0.9142,-1.7929879999999991,-2.5626679999999995,6.392758333333334,-0.5005119117175255,-0.7019001122031617,-9.516419366666673,0.9145788374984412
16169.0,-0.0183,-0.0289,0.9191,-1.5257879999999993,-1.7763679999999997,4.789758333333333,-0.5387992509715246,-0.7234646517319324,-9.480496179166673,0.9197363263457631
16186.0,0.0024,-0.0267,0.9319,-2.579287999999999,-3.9977679999999998,2.9881583333333337,-0.5975669921705642,-0.784426015040269,-9.45509683333334,0.9322855034805593
16201.0,0.0228,-0.0277,0.9353,-3.2585879999999996,-4.936668,4.072158333333333,-0.6608355536692042,-0.8520727976939761,-9.424555645833339,0.9359878311174777
16218.0,0.0305,-0.0508,0.9314,-5.434188,-7.394668,4.507258333333334,-0.7690182592294939,-0.9716933239507288,-9.386243950000006,0.9332828349434056
16233.0,-0.0066,-0.1018,0.7998,-3.2127879999999998,-4.967168,3.8431583333333332,-0.8418220973368022,-1.0367301631442651,-9.357420262500007,0.8062796289129472
16248.0,-0.1042,-0.0588,0.77,8.771912,6.8725320000000005,-9.714141666666666,-0.7409878868123965,-0.9121191397926951,-9.430276325000007,0.7792400657050432
16265.0,-0.1421,-0.0969,1.1034,12.871112,11.422132000000001,-26.859141666666666,-0.5633615768530973,-0.6833238879448482,-9.658579029166674,1.1167244870602595
16280.0,-0.0745,-0.0243,0.8278,4.550512000000001,1.6358320000000002,-40.85154166666666,-0.535181086114308,-0.6178006509344987,-9.964965591666674,0.8315007997590862
16296.0,0.0867,0.027,0.9193,2.886412000000001,1.2389320000000001,-34.248441666666665,-0.5207627206410109,-0.5719416202611547,-10.238953125000007,0.923773987509932
16312.0,0.152,0.0648,0.9315,1.4436120000000008,0.8114320000000002,-18.935441666666666,-0.5168764307282527,-0.5542494207547916,-10.390436658333341,0.9460419071055997
16328.0,0.1187,0.0671,0.9388,0.5581120000000008,0.612932,-4.393441666666666,-0.5155491687221858,-0.5542348145360884,-10.425584191666674,0.9486503781689015
16344.0,0.0198,0.0233,0.9124,0,0,1.2629583333333334,-0.5183068325171488,-0.5642487861849644,-10.415480525000008,0.9129122027884171
16359.0,0.0127,-0.0023,0.9204,0,0,0,-0.5199825892370453,-0.5735304255759878,-10.415480525000008,0.9204904888156097
16375.0,0.0167,-0.014,0.911,0,0,0,-0.5221792275467648,-0.5826700121157495,-10.415480525000008,0.9112606048765634
16391.0,0.0234,-0.0137,0.9117,0,0,0,-0.524792491097468,-0.5925041383908664,-10.415480525000008,0.9121031410975405
16407.0,0.0189,-0.0111,0.9291,0,0,0,-0.5274174216226636,-0.6023262547624954,-10.415480525000008,0.9293585045610764
16422.0,0.0251,-0.0176,0.9038,0,0,0,-0.5308977897026546,-0.612954713573967,-10.415480525000008,0.904319749867269
16438.0,0.0215,-0.0153,0.912,0,0,0,-0.5348262441739906,-0.6238030609793466,-10.415480525000008,0.9123816854803696
16454.0,0.0193,-0.0139,0.9235,0,0,0,-0.5389482398549331,-0.6345189404971171,-10.415480525000008,0.9238062296823939
16470.0,0.019,-0.0135,0.9142,0,0,0,-0.5431974538699358,-0.6450824911355475,-10.415480525000008,0.9144970694321551
16486.0,0.0193,-0.0148,0.9148,0,0,0,-0.5477121507348137,-0.6555265989596377,-10.415480525000008,0.9151232539936901
16501.0,0.0205,-0.0148,0.9131,0,0,0,-0.5524548562461035,-0.6659990809101382,-10.415480525000008,0.9134499986315617
16518.0,0.0187,-0.0154,0.9167,0,0,0,-0.5574581794658203,-0.676241031015687,-10.415480525000008,0.9170200324965644
16533.0,0.0199,-0.0137,0.9193,0,0,0,-0.5624638220121267,-0.6864026431149839,-10.415480525000008,0.919617415015614
16548.0,0.0187,-0.0159,0.9185,0,0,0,-0.5677380667446396,-0.6963249503475544,-10.415480525000008,0.9188279218656776
16565.0,0.0228,-0.0132,0.9133,0,0,0,-0.5729100511161457,-0.7065427564240059,-10.415480525000008,0.9136799056562425
16580.0,0.0203,-0.0142,0.9193,0,0,0,-0.5780958348590103,-0.7166722137857225,-10.415480525000008,0.9196337423126666
16596.0,0.02,-0.0149,0.9196,0,0,0,-0.5833703060898481,-0.726665104606819,-10.415480525000008,0.9199381337894412
16612.0,0.0212,-0.0164,0.9115,0,0,0,-0.5889149173145743,-0.7366891650499844,-10.415480525000008,0.9118939905493401
16628.0,0.0209,-0.0149,0.9139,0,0,0,-0.59449479371867,-0.7466768520299287,-10.415480525000008,0.91426037319792
16644.0,0.0227,-0.017,0.913,0,0,0,-0.6003590875558759,-0.7568402235088145,-10.415480525000008,0.913440359301033
16659.0,0.0132,-0.0159,0.9109,0,0,0,-0.6063295376160592,-0.7659548848606327,-10.415480525000008,0.9111343808681571
16675.0,0.0212,-0.0132,0.9178,0,0,0,-0.6120299112685413,-0.775109198171749,-10.415480525000008,0.9181397061449853
16691.0,0.022,-0.0179,0.91,0,0,0,-0.6180843564350657,-0.7844012680977698,-10.415480525000008,0.9104418762337331
16707.0,0.0203,-0.0148,0.9093,0,0,0,-0.6240525174429346,-0.7935854754587537,-10.415480525000008,0.9096469754800486
16722.0,0.0208,-0.014,0.9226,0,0,0,-0.6298058356868541,-0.8026826034482458,-10.415480525000008,0.922940626476048
16739.0,0.0162,-0.0137,0.9121,0,0,0,-0.6353417587545626,-0.8111373117800285,-10.415480525000008,0.9123467213729658
16754.0,0.0219,-0.0164,0.9241,0,0,0,-0.6409886867114534,-0.8196897167287028,-10.415480525000008,0.924504937791032
16771.0,0.019,-0.0129,0.9104,0,0,0,-0.6463116518478426,-0.8279851757094006,-10.415480525000008,0.9106896123268344
16786.0,0.0217,-0.0167,0.9136,0,0,0,-0.651807332249245,-0.8363667280313143,-10.415480525000008,0.914010251583646
16801.0,0.0183,-0.0154,0.9186,0,0,0,-0.657271715351771,-0.8443683191195999,-10.415480525000008,0.918911317810375
16818.0,0.0201,-0.0142,0.9203,0,0,0,-0.6625439115659336,-0.8522394928690821,-10.415480525000008,0.9206289915052643
16833.0,0.0231,-0.0184,0.9205,0,0,0,-0.6681605941662384,-0.8603543342787474,-10.415480525000008,0.9209736261153193
16849.0,0.0195,-0.0172,0.9062,0,0,0,-0.6739495706751618,-0.8682568666990892,-10.415480525000008,0.9065729590055066
16865.0,0.0227,-0.014,0.9154,0,0,0,-0.6794594012594627,-0.8763314954548874,-10.415480525000008,0.9157884308070288
16881.0,0.0192,-0.0137,0.9158,0,0,0,-0.6846738087708052,-0.8841026785278919,-10.415480525000008,0.9161036895461124
16897.0,0.0187,-0.0117,0.9215,0,0,0,-0.6893555848457784,-0.891512511664666,-10.415480525000008,0.9217639773824968
16912.0,0.0176,-0.0148,0.9158,0,0,0,-0.6939575840517195,-0.8984669903005951,-10.415480525000008,0.9160886638311817
16928.0,0.0177,-0.016,0.9103,0,0,0,-0.6986412097621174,-0.9050331595010526,-10.415480525000008,0.9106126399298441
16944.0,0.0208,-0.0123,0.918,0,0,0,-0.7029089527804,-0.9116107913265545,-10.415480525000008,0.9183179895874849
16960.0,0.0203,-0.0135,0.9181,0,0,0,-0.7069514007584004,-0.9181225077903371,-10.415480525000008,0.9184236223007333
16975.0,0.0204,-0.0179,0.9143,0,0,0,-0.7113449039997974,-0.9245858303591163,-10.415480525000008,0.9147027167336939
16992.0,0.0208,-0.0182,0.9158,0,0,0,-0.7160737794533878,-0.931039520456361,-10.415480525000008,0.9162169612051503
17007.0,0.0225,-0.0112,0.9132,0,0,0,-0.7202186460848053,-0.9376916063999201,-10.415480525000008,0.913545800712805
17022.0,0.0214,-0.0131,0.9225,0,0,0,-0.7240591815433559,-0.9443420651753357,-10.415480525000008,0.9228411672655268
17039.0,0.0226,-0.0132,0.9102,0,0,0,-0.727660588797072,-0.9511620039578284,-10.415480525000008,0.9105762131749325
17054.0,0.0203,-0.0135,0.9211,0,0,0,-0.7310599818964897,-0.9577996783977701,-10.415480525000008,0.9214225686404691
17071.0,0.019,-0.0161,0.9167,0,0,0,-0.7346081806126886,-0.9641131520428454,-10.415480525000008,0.9170382216679956
17086.0,0.0194,-0.0144,0.9153,0,0,0,-0.7380707531925957,-0.9701819472758884,-10.415480525000008,0.9156188126070804
17102.0,0.0173,-0.0125,0.9161,0,0,0,-0.7412118353526622,-0.9757580200537528,-10.415480525000008,0.9163485963322037
17118.0,0.0227,-0.0149,0.9119,0,0,0,-0.744371147579989,-0.981575108664975,-10.415480525000008,0.9123041762482511
17134.0,0.0186,-0.0172,0.923,0,0,0,-0.7478060619903152,-0.9870499266964953,-10.415480525000008,0.9233476051845264
17149.0,0.0214,-0.0156,0.9132,0,0,0,-0.7512964743658657,-0.9925889277691631,-10.415480525000008,0.9135839096656639
17165.0,0.0219,-0.0156,0.9119,0,0,0,-0.7548315386980323,-0.998239714981511,-10.415480525000008,0.9122963224742277
17181.0,0.0214,-0.0154,0.9141,0,0,0,-0.7583695243214744,-1.0039092425733445,-10.415480525000008,0.9144801419385771
17197.0,0.0209,-0.0156,0.9116,0,0,0,-0.7619331907704676,-1.0095284529741395,-10.415480525000008,0.9119729875385564
17213.0,0.0216,-0.0129,0.916,0,0,0,-0.7651654918570112,-1.0151673147413154,-10.415480525000008,0.9163454425051722
17228.0,0.0215,-0.0156,0.9138,0,0,0,-0.7684414310575775,-1.020805929123662,-10.415480525000008,0.9141860040495041
17245.0,0.0201,-0.0134,0.9198,0,0,0,-0.7714619530910548,-1.0262408783067671,-10.415480525000008,0.9201171718862766
17260.0,0.0212,-0.0138,0.9163,0,0,0,-0.7743082676561563,-1.0316328491535907,-10.415480525000008,0.9166490986195317
17275.0,0.0194,-0.0146,0.9164,0,0,0,-0.7770951993008182,-1.0367506965117093,-10.415480525000008,0.9167215935059019
17292.0,0.0203,-0.0145,0.9185,0,0,0,-0.7798074511823643,-1.041723223503045,-10.415480525000008,0.9188387181654896
17307.0,0.0212,-0.0125,0.9132,0,0,0,-0.7822087730625804,-1.0466850773335974,-10.415480525000008,0.9135315703356945
17324.0,0.0217,-0.0168,0.9193,0,0,0,-0.7848566975720661,-1.0516729284623894,-10.415480525000008,0.9197095302322359
17339.0,0.0188,-0.012,0.9149,0,0,0,-0.78712545594744,-1.056323523496428,-10.415480525000008,0.9151718144698295
17355.0,0.0221,-0.0143,0.9186,0,0,0,-0.789335422744881,-1.0610695501427638,-10.415480525000008,0.9189770726193336
17371.0,0.0176,-0.0156,0.9177,0,0,0,-0.7916535664886429,-1.0653302724950064,-10.415480525000008,0.9180013126352271
17387.0,0.0198,-0.0117,0.9181,0,0,0,-0.7935741849335406,-1.0694283683463237,-10.415480525000008,0.9183880116813372
17402.0,0.0217,-0.0135,0.9059,0,0,0,-0.7953887991836579,-1.0736463181610798,-10.415480525000008,0.9062604206297438
17418.0,0.0201,-0.0167,0.917,0,0,0,-0.7974851589213413,-1.0777305483813846,-10.415480525000008,0.917372279938739
17434.0,0.0132,-0.0121,0.9431,0,0,0,-0.7992003835071299,-1.0807556485187981,-10.415480525000008,0.9432699825606665
17449.0,0.0151,-0.0146,0.9198,0,-0.5320679999999998,0,-0.8009334157074851,-1.0909639544061096,-10.415480525000008,0.9200397871831413
17466.0,0.0265,-0.0203,0.8987,0,0,0,-0.8034313823886362,-1.094105633435736,-10.415480525000008,0.8993197595961072
17481.0,0.0256,-0.0145,0.9109,0,0,0,-0.8058511442472193,-1.0979041198645174,-10.415480525000008,0.911375016115759
17498.0,0.025,-0.0156,0.9076,0,0,0,-0.8083414038372275,-1.1022094525466446,-10.415480525000008,0.9080782565396002
17513.0,0.0244,-0.0153,0.9143,0,0,0,-0.8108378280471173,-1.1068594086204828,-10.415480525000008,0.9147534859184742
17528.0,0.0198,-0.0115,0.9121,0,0,0,-0.8128636432069687,-1.1112346653028484,-10.415480525000008,0.9123873629111705
17545.0,0.0176,-0.0106,0.9323,0,0,0,-0.8143183716555703,-1.11502580847196,-10.415480525000008,0.932526358876788
17560.0,0.0164,-0.0144,0.9182,0,0.6893320000000001,0,-0.815769553602154,-1.1080519995054716,-10.415480525000008,0.9184593404174188
17576.0,0.0187,-0.017,0.9177,0,0,0,-0.8175403893044472,-1.1111393663270228,-10.415480525000008,0.9180479181393529
17592.0,0.022,-0.0156,0.9187,0,0,0,-0.8194125328497776,-1.1143841520745859,-10.415480525000008,0.9190957784692517
17608.0,0.0219,-0.0154,0.9127,0,0,0,-0.82135724848807,-1.1177655107534408,-10.415480525000008,0.9130925801910779
17624.0,0.022,-0.0144,0.9167,0,0,0,-0.8232291668140478,-1.1212619415951433,-10.415480525000008,0.9170770142141825
17639.0,0.0228,-0.0162,0.9155,0,0,0,-0.8252604409719149,-1.1249562507812265,-10.415480525000008,0.9159271422989931
17655.0,0.0239,-0.0134,0.9104,0,0,0,-0.8270884263265725,-1.1289699839962803,-10.415480525000008,0.9108122364131918
17671.0,0.0217,-0.0155,0.9165,0,0,0,-0.8289838657513604,-1.1329648779010355,-10.415480525000008,0.9168878830042417
17687.0,0.0188,-0.0143,0.9181,0,0,0,-0.8307818769278351,-1.136567964762884,-10.415480525000008,0.9184038000792463
17702.0,0.0208,-0.0154,0.9149,0,0,0,-0.8326342256214324,-1.1400775364224949,-10.415480525000008,0.915265977735434
17719.0,0.0183,-0.0127,0.9156,0,0,0,-0.8341919060710491,-1.1431830014321975,-10.415480525000008,0.9158709188526514
17734.0,0.0216,-0.0132,0.9153,0,0,0,-0.835549516053338,-1.146339307400611,-10.415480525000008,0.9156499822530442
17750.0,0.0214,-0.0139,0.9194,0,0,0,-0.8368074385357195,-1.1494974712427122,-10.415480525000008,0.9197540595180866
17766.0,0.0205,-0.0129,0.9148,0,0,0,-0.8378589691273793,-1.1525515190256217,-10.415480525000008,0.9151205931460618
17781.0,0.0197,-0.015,0.9187,0,0,0,-0.8389813228979509,-1.1553965637478785,-10.415480525000008,0.9190336120077437
17798.0,0.0203,-0.0145,0.9135,0,0,0,-0.8401115028700318,-1.1581412830375204,-10.415480525000008,0.9138405714346458
17813.0,0.022,-0.0125,0.9205,0,0,0,-0.8409826429385443,-1.160984734368637,-10.415480525000008,0.920847707278462
17829.0,0.0197,-0.0164,0.9175,0,0,0,-0.8421168921617963,-1.1636306193407608,-10.415480525000008,0.917857995552689
17845.0,0.0208,-0.0166,0.9148,0,0,0,-0.8435111896560743,-1.1662420392070898,-10.415480525000008,0.9151869972852542
17860.0,0.0187,-0.0164,0.9203,0,0,0,-0.8450961801015864,-1.1685399704067168,-10.415480525000008,0.9206360518684895
17876.0,0.0211,-0.014,0.9153,0,0,0,-0.8465562258588333,-1.1708707088822035,-10.415480525000008,0.9156502061376932
17892.0,0.0212,-0.0149,0.9154,0,0,0,-0.848015385859312,-1.1732379592256275,-10.415480525000008,0.9157666787997912
17908.0,0.0234,-0.0162,0.9167,0,0,0,-0.8496305884980015,-1.175903941868194,-10.415480525000008,0.9171416957046495
17924.0,0.022,-0.0162,0.9152,0,0,0,-0.8513833118638475,-1.178657420428339,-10.415480525000008,0.9156077107582702
17940.0,0.024,-0.0132,0.9133,0,0,0,-0.8528826328396176,-1.1817381069855106,-10.415480525000008,0.9137106380030825
17955.0,0.0225,-0.0135,0.917,0,0,0,-0.8541855019904574,-1.184903042936188,-10.415480525000008,0.9173753321296578
17972.0,0.0208,-0.0144,0.9149,0,0,0,-0.8554292952760385,-1.187929566337546,-10.415480525000008,0.9152496981698492
17987.0,0.0212,-0.0135,0.9178,0,0,0,-0.8565001809338324,-1.190869503850197,-10.415480525000008,0.9181440682158764
18002.0,0.0212,-0.016,0.9181,0,0,0,-0.8577283170977706,-1.1937263282069834,-10.415480525000008,0.918484104380691
18019.0,0.0209,-0.0138,0.9128,0,0,0,-0.8588282952388852,-1.19648204895859,-10.415480525000008,0.9131435210305113
18034.0,0.0193,-0.0134,0.9126,0,0,0,-0.8597634075986276,-1.198943521286188,-10.415480525000008,0.9129024098993276
18051.0,0.019,-0.0159,0.9169,0,0,0,-0.8608553650369939,-1.201090584005721,-10.415480525000008,0.9172346591794273
18066.0,0.0203,-0.0151,0.9143,0,0,0,-0.861988548800033,-1.203126049898681,-10.415480525000008,0.9146499822336411
18082.0,0.0204,-0.0168,0.918,0,0,0,-0.863360990017924,-1.2050610035784617,-10.415480525000008,0.9183803133778511
18098.0,0.0214,-0.0128,0.9164,0,0,0,-0.8644446820900595,-1.2070330320507876,-10.415480525000008,0.9167391995545953
18113.0,0.0203,-0.0134,0.9152,0,0,0,-0.8653490050762532,-1.208899677638714,-10.415480525000008,0.915523178297524
18129.0,0.0222,-0.0149,0.9148,0,0,0,-0.8662815943995167,-1.2109083900211515,-10.415480525000008,0.915190630415325
18145.0,0.0215,-0.0173,0.9156,0,0,0,-0.8675358561074712,-1.212948575574833,-10.415480525000008,0.9160157749733352
18161.0,0.0237,-0.0153,0.9142,0,0,0,-0.8688239395698132,-1.215291657665728,-10.415480525000008,0.91463512943687
18177.0,0.0205,-0.0162,0.9182,0,0,0,-0.8702438334263309,-1.2174853934065402,-10.415480525000008,0.9185716792934561
18193.0,0.0168,-0.0151,0.9196,0,0,0,-0.8716368489374337,-1.2190765255484322,-10.415480525000008,0.9198773885687157
18208.0,0.0184,-0.0144,0.9152,0,0,0,-0.8729248047297218,-1.2203456025832036,-10.415480525000008,0.9154982031659047
18224.0,0.0225,-0.0144,0.9106,0,0,0,-0.8741266824035547,-1.221853669095755,-10.415480525000008,0.9109917507859223
18240.0,0.0212,-0.0151,0.9166,0,0,0,-0.8753256041987241,-1.223390046096545,-10.415480525000008,0.9169694705932144
18255.0,0.0181,-0.0157,0.915,0,0,0,-0.8765979779352904,-1.224565079312675,-10.415480525000008,0.9153136620852985
18272.0,0.0203,-0.0137,0.9124,0,0,0,-0.8776875947083896,-1.2257015049767914,-10.415480525000008,0.9127286234144298
18287.0,0.0243,-0.0134,0.9115,0,0,0,-0.8785778247265534,-1.227304854441023,-10.415480525000008,0.9119223102874499
18304.0,0.0206,-0.0155,0.9153,0,0,0,-0.8795457445547222,-1.228842981188556,-10.415480525000008,0.9156629838537758
18319.0,0.0195,-0.014,0.91,0,0,0,-0.8804032129483611,-1.230197831776087,-10.415480525000008,0.9103165658165295
18334.0,0.0173,-0.0157,0.9182,0,0,0,-0.8813579439175421,-1.231089634703373,-10.415480525000008,0.9184971529623813
18351.0,0.0216,-0.0143,0.9174,0,0,0,-0.8822226821624478,-1.2321119403384748,-10.415480525000008,0.9177656618113362
18366.0,0.0219,-0.0145,0.9181,0,0,0,-0.8830299533522062,-1.233282798279805,-10.415480525000008,0.9184756229753733
18382.0,0.0204,-0.0134,0.918,0,0,0,-0.8836476231778571,-1.2343948991955391,-10.415480525000008,0.918324408910054
18398.0,0.0227,-0.0154,0.9174,0,0,0,-0.884348116147434,-1.2357422934312805,-10.415480525000008,0.9178100075723734
18414.0,0.0228,-0.0162,0.9185,0,0,0,-0.8852180230945083,-1.2373037844700228,-10.415480525000008,0.9189257478164381
18429.0,0.0214,-0.0154,0.9155,0,0,0,-0.8861416884323666,-1.238884496515019,-10.415480525000008,0.9158795608593959
18446.0,0.0204,-0.0159,0.9083,0,0,0,-0.8871882371642754,-1.2403746092392802,-10.415480525000008,0.9086681792601742
18461.0,0.0205,-0.0162,0.9182,0,0,0,-0.8883583846575206,-1.2417659209460383,-10.415480525000008,0.9185716792934561
18477.0,0.0197,-0.0157,0.9222,0,0,0,-0.8895643541946812,-1.2429559342297076,-10.415480525000008,0.9225439935309319
18493.0,0.02,-0.0144,0.9155,0,0,0,-0.8906508062442446,-1.2440226535669403,-10.415480525000008,0.9158316493766744
18508.0,0.0238,-0.0162,0.9121,0,0,0,-0.8918615749135032,-1.2454633371794221,-10.415480525000008,0.91255426687951
18525.0,0.0189,-0.014,0.9137,0,0,0,-0.8929013540261667,-1.246613634471914,-10.415480525000008,0.9140026805212335
18540.0,0.0216,-0.0157,0.9207,0,0,0,-0.8939862876142702,-1.2478232580390525,-10.415480525000008,0.9210871511426049
18556.0,0.0225,-0.0145,0.9163,0,0,0,-0.8949678649457917,-1.2492078169837115,-10.415480525000008,0.9166908911950636
18572.0,0.019,-0.0166,0.9131,0,0,0,-0.8961256806959005,-1.2503154291710277,-10.415480525000008,0.9134485042956719
18587.0,0.0225,-0.0173,0.9203,0,0,0,-0.8975089613519168,-1.2515936101268303,-10.415480525000008,0.920737546752602
18604.0,0.0228,-0.0145,0.9176,0,0,0,-0.8987439123531993,-1.2530648002229943,-10.415480525000008,0.9179977396486333
18619.0,0.0227,-0.019,0.9152,0,0,0,-0.9004130767740501,-1.254697715937564,-10.415480525000008,0.9156786172014721
18635.0,0.02,-0.0161,0.9137,0,0,0,-0.9021028055415227,-1.2561368586721284,-10.415480525000008,0.9140606653827742
18651.0,0.0194,-0.0134,0.9147,0,0,0,-0.90346756232814,-1.2573242263299607,-10.415480525000008,0.9150038305930746
18667.0,0.0226,-0.0121,0.9127,0,0,0,-0.9043842931851866,-1.2586931045395757,-10.415480525000008,0.9130599432676915
18682.0,0.0225,-0.0144,0.9131,0,0,0,-0.9051907659519531,-1.260205778212535,-10.415480525000008,0.9134906786607075
18698.0,0.0219,-0.0159,0.9202,0,0,0,-0.9060713810490582,-1.261746494252582,-10.415480525000008,0.92059788181377
18714.0,0.0192,-0.0157,0.9142,0,0,0,-0.9070031441760323,-1.262988640607486,-10.415480525000008,0.9145363688776953
18729.0,0.0225,-0.0139,0.917,0,0,0,-0.9077470641209244,-1.2643695759085865,-10.415480525000008,0.9173813056739275
18746.0,0.0204,-0.0127,0.9172,0,0,0,-0.9081734987867788,-1.2656069416705236,-10.415480525000008,0.917514735576492
18761.0,0.0227,-0.017,0.9163,0,0,0,-0.9088584965186335,-1.2670054198207452,-10.415480525000008,0.9167387741336133
18778.0,0.0229,-0.0137,0.9153,0,0,0,-0.9093595722414083,-1.2685711303948213,-10.415480525000008,0.915688915516618
18793.0,0.0199,-0.0165,0.9171,0,0,0,-0.9100439985411859,-1.2699008218857455,-10.415480525000008,0.9174642608843138
18809.0,0.0206,-0.0155,0.9144,0,0,0,-0.9107692518328627,-1.2711150820383414,-10.415480525000008,0.9147633409795125
18825.0,0.0244,-0.0132,0.9124,0,0,0,-0.9112453105537361,-1.2727062484042448,-10.415480525000008,0.9128216474207872
18840.0,0.0211,-0.0165,0.9155,0,0,0,-0.9119072110899049,-1.2742048287238472,-10.415480525000008,0.9158917567049066
18856.0,0.021,-0.0178,0.9135,0,0,0,-0.9128985305813309,-1.2756121134368923,-10.415480525000008,0.9139147060858579
18872.0,0.0176,-0.0184,0.9147,0,0,0,-0.9142512299119184,-1.2765070583168265,-10.415480525000008,0.9150543207919407
18888.0,0.0223,-0.0148,0.9155,0,0,0,-0.9154675606126256,-1.277534128480033,-10.415480525000008,0.9158911398195748
18904.0,0.0219,-0.0135,0.9159,0,0,0,-0.9163977006940303,-1.278624455561522,-10.415480525000008,0.9162612454971563
18920.0,0.0247,-0.0112,0.9143,0,0,0,-0.9167889595091365,-1.2801234354393187,-10.415480525000008,0.9147021482428037
18935.0,0.0217,-0.0161,0.915,0,0,0,-0.9173159784435504,-1.2816024131474864,-10.415480525000008,0.9153988748081352
18951.0,0.0173,-0.0142,0.9186,0,0,0,-0.9177167604498355,-1.2824997310771349,-10.415480525000008,0.9188726190283395
18967.0,0.0201,-0.0139,0.9181,0,0,0,-0.9179688355402505,-1.2832341636028652,-10.415480525000008,0.9184251902033175
18982.0,0.0216,-0.0142,0.9143,0,0,0,-0.9181344314329694,-1.2840220447803,-10.415480525000008,0.914665343172026
18999.0,0.0212,-0.0155,0.916,0,0,0,-0.9183825939987528,-1.2848005597604175,-10.415480525000008,0.9163763910097205
19014.0,0.021,-0.0157,0.9165,0,0,0,-0.9187270810655082,-1.2855427988416928,-10.415480525000008,0.9168749860259031
19031.0,0.0216,-0.0145,0.9135,0,0,0,-0.9190118352672991,-1.286335272850748,-10.415480525000008,0.9138703737401711
19046.0,0.0238,-0.0118,0.9158,0,0,0,-0.9189007871140038,-1.2874390272236687,-10.415480525000008,0.9161851996185051
19061.0,0.0222,-0.0133,0.9141,0,0,0,-0.9186319515207199,-1.288619963717408,-10.415480525000008,0.91446625962908
19078.0,0.0204,-0.0132,0.9215,0,0,0,-0.9181975182123839,-1.2896197716861544,-10.415480525000008,0.9218202915970118
19093.0,0.022,-0.0134,0.9175,0,0,0,-0.917650777715358,-1.290669637950335,-10.415480525000008,0.9178615418460455
19109.0,0.0212,-0.0151,0.9121,0,0,0,-0.9172291940693289,-1.2916773455133315,-10.415480525000008,0.9124712926991183
19125.0,0.0206,-0.0176,0.9203,0,0,0,-0.9172153383489823,-1.292546857938879,-10.415480525000008,0.9206987618108324
19141.0,0.0205,-0.0131,0.9148,0,0,0,-0.9170093996718264,-1.293296303036315,-10.415480525000008,0.9151234342972536
19156.0,0.0222,-0.0167,0.9156,0,0,0,-0.9170828666852823,-1.2941485561901827,-10.415480525000008,0.9160213370877339
19173.0,0.0221,-0.016,0.9185,0,0,0,-0.9173092503921186,-1.2950688055155652,-10.415480525000008,0.9189051420032429
19188.0,0.0189,-0.0175,0.9111,0,0,0,-0.9178728378481588,-1.295668652845772,-10.415480525000008,0.9114640256203204
19204.0,0.0236,-0.0126,0.9126,0,0,0,-0.9181166397925224,-1.296568126315933,-10.415480525000008,0.9129920481581424
19220.0,0.0212,-0.0138,0.9147,0,0,0,-0.9182237768787174,-1.2974237576298162,-10.415480525000008,0.915049709032247
19235.0,0.022,-0.0143,0.9132,0,0,0,-0.9182756851578202,-1.2983435082383707,-10.415480525000008,0.9135768878425067
19252.0,0.0237,-0.0159,0.9185,0,0,0,-0.9184682134708384,-1.2995150845727257,-10.415480525000008,0.9189432789895141
19267.0,0.0226,-0.017,0.913,0,0,0,-0.9189332147998653,-1.3007850586982128,-10.415480525000008,0.913437879661228
19283.0,0.0214,-0.0154,0.9143,0,0,0,-0.9194348477227642,-1.3019852742529276,-10.415480525000008,0.9146800588183828
19299.0,0.0239,-0.014,0.9092,0,0,0,-0.9198028952500187,-1.303449770791694,-10.415480525000008,0.9096218170206781
19314.0,0.0216,-0.0129,0.9171,0,0,0,-0.9198985561892692,-1.3048328463523755,-10.415480525000008,0.9174450283259483
19331.0,0.0198,-0.0146,0.9198,0,0,0,-0.9199613269226391,-1.305908062956324,-10.415480525000008,0.9201289257489952
19346.0,0.0212,-0.0173,0.9144,0,0,0,-0.9203436681893795,-1.306900926550062,-10.415480525000008,0.9148093189293602
19362.0,0.0189,-0.017,0.9153,0,0,0,-0.9209678556556834,-1.3075286835509223,-10.415480525000008,0.915652936433887
19378.0,0.0223,-0.0128,0.9149,0,0,0,-0.921279178252757,-1.308259803768017,-10.415480525000008,0.9152612413950457
19394.0,0.0247,-0.0153,0.9189,0,0,0,-0.9216184670017153,-1.3093690644722737,-10.415480525000008,0.9193592279408523
19409.0,0.021,-0.0167,0.9147,0,0,0,-0.9221656588073177,-1.31035914893153,-10.415480525000008,0.9150934269242675
19425.0,0.0234,-0.0146,0.916,0,0,0,-0.9226296231552513,-1.3115385036890397,-10.415480525000008,0.9164151460991902
19441.0,0.0219,-0.015,0.9125,0,0,0,-0.9230765886101474,-1.3127052543630913,-10.415480525000008,0.9128860060270395
19457.0,0.0226,-0.0142,0.9169,0,0,0,-0.9233984634038286,-1.3139329699497253,-10.415480525000008,0.9172884006679688
19473.0,0.0225,-0.0151,0.911,0,0,0,-0.923734097503461,-1.3152172209446025,-10.415480525000008,0.9114029076100207
19488.0,0.026,-0.0149,0.9099,0,0,0,-0.9240582516146514,-1.3169904909218606,-10.415480525000008,0.9103933325766397
19505.0,0.0216,-0.0143,0.9147,0,0,0,-0.9242868470913277,-1.318626007283898,-10.415480525000008,0.915066740735341
19520.0,0.0222,-0.0159,0.9122,0,0,0,-0.9246361974303577,-1.3202195393479832,-10.415480525000008,0.912608618192925
19536.0,0.0214,-0.0165,0.9149,0,0,0,-0.925161012863507,-1.3216643921032951,-10.415480525000008,0.915298978476432
19552.0,0.0181,-0.0129,0.913,0,0,0,-0.9253926618026862,-1.3225675850396768,-10.415480525000008,0.9132705075715519
19567.0,0.0189,-0.0186,0.9148,0,0,0,-0.9260755711217877,-1.3230860202454822,-10.415480525000008,0.9151842492088682
19584.0,0.0201,-0.0159,0.9165,0,0,0,-0.9268132252248794,-1.3234094392589733,-10.415480525000008,0.9168582605833903
19599.0,0.0236,-0.0159,0.9149,0,0,0,-0.9276008646202757,-1.3240032615010864,-10.415480525000008,0.9153424386534256
19615.0,0.021,-0.0135,0.9183,0,0,0,-0.9281235053426592,-1.3244987489899493,-10.415480525000008,0.9186392872068992
19631.0,0.0211,-0.0129,0.9141,0,0,0,-0.9283450727955679,-1.3249314390829767,-10.415480525000008,0.9144344864450378
19647.0,0.0194,-0.0132,0.9127,0,0,0,-0.9283410859781942,-1.3250991016627116,-10.415480525000008,0.9130015826930421
19662.0,0.0212,-0.0154,0.915,0,0,0,-0.9284088615848678,-1.325251319728574,-10.415480525000008,0.91537511436569
19678.0,0.0222,-0.0135,0.915,0,0,0,-0.928301836527568,-1.3255148252136821,-10.415480525000008,0.9153688273040546
19694.0,0.0219,-0.0151,0.912,0,0,0,-0.9282472797035238,-1.3258471891500256,-10.415480525000008,0.9123878670828542
19709.0,0.0214,-0.0137,0.9208,0,0,0,-0.9280460957346973,-1.3261512084635851,-10.415480525000008,0.9211505251586193
19726.0,0.0221,-0.017,0.9144,0,0,0,-0.9281419426064194,-1.3265360047077075,-10.415480525000008,0.9148249941928783
19741.0,0.0187,-0.0126,0.9142,0,0,0,-0.9279493838616794,-1.326566259832971,-10.415480525000008,0.9144780423826478
19758.0,0.022,-0.0146,0.9113,0,0,0,-0.9277588431210645,-1.3267052813821092,-10.415480525000008,0.9116824282610694
19773.0,0.0193,-0.016,0.9139,0,0,0,-0.9277407085246632,-1.3265942729094384,-10.415480525000008,0.9142437858689552
19788.0,0.0212,-0.0146,0.9205,0,0,0,-0.9276859109682108,-1.3264818407447219,-10.415480525000008,0.9208598427556715
19805.0,0.0226,-0.0126,0.9137,0,0,0,-0.9273622204971557,-1.326563256044061,-10.415480525000008,0.9140663050348152
19820.0,0.0193,-0.0127,0.9144,0,0,0,-0.926813237665774,-1.3264003728236926,-10.415480525000008,0.9146918278852173
19836.0,0.0219,-0.0137,0.9202,0,0,0,-0.9261803535357909,-1.326331049352266,-10.415480525000008,0.920562512814855
19852.0,0.0214,-0.0133,0.9169,0,0,0,-0.9254312304027005,-1.326291310829418,-10.415480525000008,0.9172461283646828
19868.0,0.022,-0.0157,0.9148,0,0,0,-0.9248853922817862,-1.3263588785789446,-10.415480525000008,0.9151991750433345
19884.0,0.0226,-0.0146,0.9144,0,0,0,-0.9243831016005928,-1.3265972058242996,-10.415480525000008,0.914795758625935
19899.0,0.0225,-0.016,0.9153,0,0,0,-0.9240936317530158,-1.326970542847357,-10.415480525000008,0.9157162988611702
19915.0,0.0186,-0.0139,0.9197,0,0,0,-0.9237211794459459,-1.3269615045092908,-10.415480525000008,0.9199930760609016
19931.0,0.0195,-0.0122,0.9156,0,0,0,-0.9230717644811377,-1.3267398068762826,-10.415480525000008,0.9158888851820399
19947.0,0.0211,-0.0126,0.9148,0,0,0,-0.9222308475482656,-1.3265333824964918,-10.415480525000008,0.9151300508670884
19962.0,0.0227,-0.015,0.9189,0,0,0,-0.921514885876951,-1.3265291109384554,-10.415480525000008,0.9193027248953416
19979.0,0.0239,-0.0165,0.9093,0,0,0,-0.9211168162079497,-1.3268811703291215,-10.415480525000008,0.9097636781054738
19994.0,0.021,-0.0143,0.9165,0,0,0,-0.9207108067166198,-1.327163059522369,-10.415480525000008,0.9168520818539924
20009.0,0.0215,-0.0125,0.9141,0,0,0,-0.920078072688415,-1.327452085427311,-10.415480525000008,0.9144382483251671
20026.0,0.0231,-0.0133,0.9175,0,0,0,-0.9193400591478188,-1.3279370164346591,-10.415480525000008,0.9178871117953449
20041.0,0.0247,-0.0138,0.9166,0,0,0,-0.9185749063037967,-1.3287964805096633,-10.415480525000008,0.9170365805135583
20058.0,0.0211,-0.0126,0.9121,0,0,0,-0.9176460002352145,-1.3295476777182447,-10.415480525000008,0.9124310275303005
20073.0,0.0208,-0.0167,0.9193,0,0,0,-0.9170736558260956,-1.3301428844612744,-10.415480525000008,0.91968691411806
20089.0,0.0221,-0.0148,0.9154,0,0,0,-0.9165866730882785,-1.3307735417992885,-10.415480525000008,0.9157863342505173
20105.0,0.0219,-0.0151,0.9146,0,0,0,-0.9162150595340749,-1.3314115721970536,-10.415480525000008,0.9149867649316027
20121.0,0.0184,-0.0143,0.9133,0,0,0,-0.9158485896800258,-1.3316207788701333,-10.415480525000008,0.9135972526228393
20136.0,0.0212,-0.0146,0.9148,0,0,0,-0.9155218584194159,-1.3317971953976602,-10.415480525000008,0.9151620840047953
20152.0,0.0199,-0.0145,0.918,0,0,0,-0.9152120894951705,-1.3317723557565166,-10.415480525000008,0.9183301476048796
20168.0,0.0203,-0.0135,0.9133,0,0,0,-0.9148019901926232,-1.3316337753944218,-10.415480525000008,0.9136253225474872
20184.0,0.0219,-0.0131,0.9175,0,0,0,-0.9142459035344412,-1.3315831538242926,-10.415480525000008,0.9178548196746585
20200.0,0.0225,-0.0127,0.9176,0,0,0,-0.9135119833583282,-1.3316849272168272,-10.415480525000008,0.9179636703050943
20215.0,0.0183,-0.0129,0.9154,0,0,0,-0.9126521278029901,-1.3314020022392727,-10.415480525000008,0.9156737737862759
20232.0,0.0199,-0.0155,0.915,0,0,0,-0.9120088164299824,-1.3309815794131123,-10.415480525000008,0.9153476170286348
20247.0,0.0233,-0.0133,0.9161,0,0,0,-0.9112803480348493,-1.330862834110288,-10.415480525000008,0.916492765928897
20262.0,0.022,-0.0165,0.9143,0,0,0,-0.910882031568028,-1.3308530160271805,-10.415480525000008,0.9147134742639359
20279.0,0.0204,-0.0133,0.9132,0,0,0,-0.9103776174160108,-1.330742324530836,-10.415480525000008,0.9135246521030508
20294.0,0.0171,-0.0145,0.9197,0,0,0,-0.909918322847336,-1.330111370542699,-10.415480525000008,0.9199732333062739
20311.0,0.0184,-0.0176,0.9116,0,0,0,-0.909903275480178,-1.3292084623270262,-10.415480525000008,0.9119555252313569
20326.0,0.0245,-0.015,0.9159,0,0,0,-0.9099461157679362,-1.3288185530308452,-10.415480525000008,0.916350402411654
20342.0,0.021,-0.0143,0.9084,0,0,0,-0.9099674174558524,-1.3284654218424137,-10.415480525000008,0.9087552200675384
20358.0,0.0214,-0.0151,0.9122,0,0,0,-0.9100622741347841,-1.3281846676815645,-10.415480525000008,0.9125759201293885
20374.0,0.0217,-0.0156,0.913,0,0,0,-0.9102828650190002,-1.328003617207033,-10.415480525000008,0.9133910717759399
20389.0,0.0228,-0.0118,0.9115,0,0,0,-0.9101407745044792,-1.3280530686846248,-10.415480525000008,0.9118614642586887
20405.0,0.0219,-0.0148,0.9207,0,0,0,-0.9100367484478543,-1.3281661912635936,-10.415480525000008,0.9210793342595414
20421.0,0.021,-0.0176,0.9155,0,0,0,-0.9103273664410707,-1.3282376748306606,-10.415480525000008,0.9159099355285977
20436.0,0.0208,-0.0181,0.9132,0,0,0,-0.9110327725634106,-1.3282539378982552,-10.415480525000008,0.9136161611968124
20453.0,0.0228,-0.0132,0.9126,0,0,0,-0.9114901789020257,-1.328473687433041,-10.415480525000008,0.9129801969374801
20468.0,0.0209,-0.0167,0.9174,0,0,0,-0.9121564839780075,-1.3286205066048848,-10.415480525000008,0.9177899868706348
20485.0,0.0217,-0.0148,0.9177,0,0,0,-0.9127671009487851,-1.3288020060342758,-10.415480525000008,0.9180758247552322
20500.0,0.0231,-0.0165,0.9158,0,0,0,-0.9135440046395684,-1.329194487318261,-10.415480525000008,0.9162398703396398
20515.0,0.0206,-0.0164,0.9106,0,0,0,-0.9144644959239967,-1.3294746316815906,-10.415480525000008,0.9109806145028554
20532.0,0.0226,-0.0145,0.9159,0,0,0,-0.9152607530416211,-1.3298899418576315,-10.415480525000008,0.9162935228407981
20547.0,0.0193,-0.0143,0.9142,0,0,0,-0.9159245141276936,-1.3300154600319294,-10.415480525000008,0.9145155110767668
20563.0,0.0195,-0.017,0.9158,0,0,0,-0.9168047876678437,-1.3299055091589316,-10.415480525000008,0.9161653180512782
20579.0,0.0209,-0.015,0.9149,0,0,0,-0.917625673790687,-1.329765996508446,-10.415480525000008,0.915261612873609
20595.0,0.0222,-0.0164,0.9115,0,0,0,-0.9185749112587842,-1.329773323391682,-10.415480525000008,0.9119177868645835
20611.0,0.0247,-0.0142,0.9164,0,0,0,-0.9193495569415979,-1.330208949094354,-10.415480525000008,0.9168427836875851
20626.0,0.0214,-0.0106,0.9137,0,0,0,-0.9195236780641393,-1.3306161596857304,-10.415480525000008,0.9140120404020945
20642.0,0.0219,-0.0148,0.9124,0,0,0,-0.9196962879862032,-1.3310639533055648,-10.415480525000008,0.9127827835799709
20658.0,0.0203,-0.0127,0.9207,0,0,0,-0.9195876123769292,-1.331321820917044,-10.415480525000008,0.9210113300063142
20674.0,0.0227,-0.0132,0.9209,0,0,0,-0.9192934254678161,-1.3317114966984664,-10.415480525000008,0.9212743022574765
20689.0,0.0203,-0.0177,0.9143,0,0,0,-0.9194124235852725,-1.3319358054178543,-10.415480525000008,0.9146965999718158
20706.0,0.0209,-0.0178,0.9141,0,0,0,-0.9199086046186787,-1.332089430833203,-10.415480525000008,0.914512143167055
20721.0,0.02,-0.0146,0.9124,0,0,0,-0.9203396514011912,-1.3320727062070734,-10.415480525000008,0.9127359530554278
20738.0,0.0219,-0.017,0.9161,0,0,0,-0.9210050377862206,-1.3321327592040464,-10.415480525000008,0.9165194051409932
20753.0,0.0194,-0.0148,0.9221,0,0,0,-0.921588104194559,-1.3319302250281926,-10.415480525000008,0.9224227935171594
20768.0,0.0205,-0.0122,0.9165,0,0,0,-0.921783885699666,-1.3316504001931153,-10.415480525000008,0.9168104166074904
20785.0,0.0199,-0.0138,0.9189,0,0,0,-0.9218329842200471,-1.3312210872902654,-10.415480525000008,0.9192190489758141
20800.0,0.0226,-0.0145,0.9127,0,0,0,-0.921852520835478,-1.3310161563105138,-10.415480525000008,0.9130949019680265
20816.0,0.0229,-0.0146,0.9146,0,0,0,-0.9218545974784603,-1.3310416805138716,-10.415480525000008,0.9150031311421836
20832.0,0.0198,-0.0146,0.9142,0,0,0,-0.9218422151611414,-1.3308838583911702,-10.415480525000008,0.9145309398812048
